id,gender,age,stim,ntrial,grade,grade_f,block,trial_within_block,target,rt,correct,error
106,Female,415,8n1a,1,1,1st Grade,1,1,Angry,6218.75,1,0
106,Female,415,8n1h,2,1,1st Grade,1,2,Happy,4140.625,1,0
106,Female,415,8n1h,3,1,1st Grade,1,3,Happy,2984.375,1,0
106,Female,415,8n1a,4,1,1st Grade,1,4,Angry,3812.5,1,0
106,Female,415,alln,5,1,1st Grade,1,5,Absent,9625,1,0
106,Female,415,alln,6,1,1st Grade,1,6,Absent,8312.5,1,0
106,Female,415,alln,7,1,1st Grade,1,7,Absent,6265.625,1,0
106,Female,415,8n1h,8,1,1st Grade,1,8,Happy,3468.75,1,0
106,Female,415,8n1a,9,1,1st Grade,1,9,Angry,2765.625,1,0
106,Female,415,8n1a,10,1,1st Grade,1,10,Angry,7062.5,1,0
106,Female,415,alln,11,1,1st Grade,1,11,Absent,7406.25,1,0
106,Female,415,alln,12,1,1st Grade,1,12,Absent,6796.875,1,0
106,Female,415,8n1a,13,1,1st Grade,1,13,Angry,6781.25,1,0
106,Female,415,8n1h,14,1,1st Grade,1,14,Happy,7515.625,1,0
106,Female,415,alln,15,1,1st Grade,1,15,Absent,8218.75,1,0
106,Female,415,8n1a,16,1,1st Grade,1,16,Angry,4531.25,1,0
106,Female,415,8n1a,17,1,1st Grade,1,17,Angry,6875,1,0
106,Female,415,8n1a,18,1,1st Grade,1,18,Angry,5718.75,1,0
106,Female,415,8n1h,19,1,1st Grade,1,19,Happy,4531.25,1,0
106,Female,415,8n1h,20,1,1st Grade,1,20,Happy,7656.25,1,0
106,Female,415,alln,21,1,1st Grade,1,21,Absent,2890.625,1,0
106,Female,415,8n1h,22,1,1st Grade,1,22,Happy,4625,1,0
106,Female,415,8n1h,23,1,1st Grade,1,23,Happy,6281.25,1,0
106,Female,415,alln,24,1,1st Grade,1,24,Absent,4953.125,1,0
106,Female,415,alln,25,1,1st Grade,1,25,Absent,4390.625,1,0
106,Female,415,8n1a,26,1,1st Grade,1,26,Angry,5750,1,0
106,Female,415,8n1h,27,1,1st Grade,1,27,Happy,6281.25,1,0
106,Female,415,8n1a,28,1,1st Grade,2,1,Angry,2156.25,1,0
106,Female,415,8n1a,29,1,1st Grade,2,2,Angry,2984.375,1,0
106,Female,415,alln,30,1,1st Grade,2,3,Absent,2671.875,1,0
106,Female,415,8n1a,31,1,1st Grade,2,4,Angry,2781.25,1,0
106,Female,415,8n1h,32,1,1st Grade,2,5,Happy,1421.875,1,0
106,Female,415,alln,33,1,1st Grade,2,6,Absent,2421.875,1,0
106,Female,415,alln,34,1,1st Grade,2,7,Absent,2062.5,1,0
106,Female,415,8n1a,35,1,1st Grade,2,8,Angry,1921.875,1,0
106,Female,415,8n1a,36,1,1st Grade,2,9,Angry,2687.5,1,0
106,Female,415,alln,37,1,1st Grade,2,10,Absent,3890.625,1,0
106,Female,415,alln,38,1,1st Grade,2,11,Absent,2531.25,1,0
106,Female,415,8n1a,39,1,1st Grade,2,12,Angry,2421.875,0,1
106,Female,415,8n1h,40,1,1st Grade,2,13,Happy,3843.75,1,0
106,Female,415,alln,41,1,1st Grade,2,14,Absent,3109.375,1,0
106,Female,415,8n1h,42,1,1st Grade,2,15,Happy,2921.875,1,0
106,Female,415,8n1h,43,1,1st Grade,2,16,Happy,,1,0
106,Female,415,alln,44,1,1st Grade,2,17,Absent,1500,1,0
106,Female,415,8n1h,45,1,1st Grade,2,18,Happy,2015.625,1,0
106,Female,415,8n1h,46,1,1st Grade,2,19,Happy,2125,1,0
106,Female,415,8n1h,47,1,1st Grade,2,20,Happy,,1,0
106,Female,415,8n1a,48,1,1st Grade,2,21,Angry,3375,1,0
106,Female,415,8n1h,49,1,1st Grade,2,22,Happy,,1,0
106,Female,415,8n1h,50,1,1st Grade,2,23,Happy,,1,0
106,Female,415,8n1a,51,1,1st Grade,2,24,Angry,,1,0
106,Female,415,8n1a,52,1,1st Grade,2,25,Angry,,1,0
106,Female,415,alln,53,1,1st Grade,2,26,Absent,2625,1,0
106,Female,415,alln,54,1,1st Grade,2,27,Absent,2734.375,1,0
106,Female,415,8n1h,55,1,1st Grade,3,1,Happy,1875,0,1
106,Female,415,8n1h,56,1,1st Grade,3,2,Happy,1843.75,1,0
106,Female,415,alln,57,1,1st Grade,3,3,Absent,2062.5,1,0
106,Female,415,8n1a,58,1,1st Grade,3,4,Angry,2453.125,1,0
106,Female,415,alln,59,1,1st Grade,3,5,Absent,1531.25,1,0
106,Female,415,8n1h,60,1,1st Grade,3,6,Happy,,0,1
106,Female,415,8n1a,61,1,1st Grade,3,7,Angry,,1,0
106,Female,415,8n1a,62,1,1st Grade,3,8,Angry,1750,1,0
106,Female,415,8n1a,63,1,1st Grade,3,9,Angry,2156.25,1,0
106,Female,415,alln,64,1,1st Grade,3,10,Absent,,1,0
106,Female,415,alln,65,1,1st Grade,3,11,Absent,,1,0
106,Female,415,alln,66,1,1st Grade,3,12,Absent,,1,0
106,Female,415,8n1h,67,1,1st Grade,3,13,Happy,2734.375,1,0
106,Female,415,8n1a,68,1,1st Grade,3,14,Angry,2031.25,1,0
106,Female,415,8n1h,69,1,1st Grade,3,15,Happy,1296.875,0,1
106,Female,415,alln,70,1,1st Grade,3,16,Absent,2281.25,1,0
106,Female,415,8n1a,71,1,1st Grade,3,17,Angry,,1,0
106,Female,415,8n1h,72,1,1st Grade,3,18,Happy,2015.625,1,0
106,Female,415,8n1h,73,1,1st Grade,3,19,Happy,2234.375,1,0
106,Female,415,alln,74,1,1st Grade,3,20,Absent,,1,0
106,Female,415,8n1a,75,1,1st Grade,3,21,Angry,2625,1,0
106,Female,415,8n1h,76,1,1st Grade,3,22,Happy,2406.25,1,0
106,Female,415,alln,77,1,1st Grade,3,23,Absent,,1,0
106,Female,415,8n1h,78,1,1st Grade,3,24,Happy,,1,0
106,Female,415,8n1a,79,1,1st Grade,3,25,Angry,2562.5,1,0
106,Female,415,alln,80,1,1st Grade,3,26,Absent,,1,0
106,Female,415,8n1a,81,1,1st Grade,3,27,Angry,1468.75,1,0
107,Male,329,alln,1,1,1st Grade,1,1,Absent,2546.875,1,0
107,Male,329,alln,2,1,1st Grade,1,2,Absent,2515.625,1,0
107,Male,329,8n1a,3,1,1st Grade,1,3,Angry,,1,0
107,Male,329,8n1h,4,1,1st Grade,1,4,Happy,1796.875,1,0
107,Male,329,8n1a,5,1,1st Grade,1,5,Angry,,1,0
107,Male,329,alln,6,1,1st Grade,1,6,Absent,2031.25,1,0
107,Male,329,alln,7,1,1st Grade,1,7,Absent,1671.875,1,0
107,Male,329,alln,8,1,1st Grade,1,8,Absent,2546.875,1,0
107,Male,329,8n1a,9,1,1st Grade,1,9,Angry,2390.625,1,0
107,Male,329,8n1a,10,1,1st Grade,1,10,Angry,,1,0
107,Male,329,8n1h,11,1,1st Grade,1,11,Happy,1750,1,0
107,Male,329,8n1h,12,1,1st Grade,1,12,Happy,,1,0
107,Male,329,8n1h,13,1,1st Grade,1,13,Happy,2093.75,1,0
107,Male,329,8n1h,14,1,1st Grade,1,14,Happy,,1,0
107,Male,329,alln,15,1,1st Grade,1,15,Absent,2625,0,1
107,Male,329,alln,16,1,1st Grade,1,16,Absent,,1,0
107,Male,329,8n1h,17,1,1st Grade,1,17,Happy,3000,1,0
107,Male,329,8n1h,18,1,1st Grade,1,18,Happy,,1,0
107,Male,329,alln,19,1,1st Grade,1,19,Absent,,1,0
107,Male,329,8n1a,20,1,1st Grade,1,20,Angry,,1,0
107,Male,329,8n1h,21,1,1st Grade,1,21,Happy,,0,1
107,Male,329,8n1h,22,1,1st Grade,1,22,Happy,2031.25,1,0
107,Male,329,8n1a,23,1,1st Grade,1,23,Angry,2156.25,1,0
107,Male,329,8n1a,24,1,1st Grade,1,24,Angry,,1,0
107,Male,329,8n1a,25,1,1st Grade,1,25,Angry,2921.875,1,0
107,Male,329,alln,26,1,1st Grade,1,26,Absent,,1,0
107,Male,329,8n1a,27,1,1st Grade,1,27,Angry,2437.5,1,0
107,Male,329,8n1h,28,1,1st Grade,2,1,Happy,1796.875,1,0
107,Male,329,alln,29,1,1st Grade,2,2,Absent,1812.5,1,0
107,Male,329,8n1h,30,1,1st Grade,2,3,Happy,,1,0
107,Male,329,8n1h,31,1,1st Grade,2,4,Happy,2171.875,1,0
107,Male,329,8n1h,32,1,1st Grade,2,5,Happy,,1,0
107,Male,329,alln,33,1,1st Grade,2,6,Absent,2062.5,1,0
107,Male,329,alln,34,1,1st Grade,2,7,Absent,1562.5,1,0
107,Male,329,8n1h,35,1,1st Grade,2,8,Happy,2421.875,1,0
107,Male,329,8n1h,36,1,1st Grade,2,9,Happy,2703.125,0,1
107,Male,329,alln,37,1,1st Grade,2,10,Absent,,0,1
107,Male,329,8n1a,38,1,1st Grade,2,11,Angry,2421.875,0,1
107,Male,329,8n1h,39,1,1st Grade,2,12,Happy,2171.875,1,0
107,Male,329,8n1a,40,1,1st Grade,2,13,Angry,1343.75,1,0
107,Male,329,8n1a,41,1,1st Grade,2,14,Angry,2781.25,1,0
107,Male,329,8n1a,42,1,1st Grade,2,15,Angry,,1,0
107,Male,329,8n1a,43,1,1st Grade,2,16,Angry,2421.875,1,0
107,Male,329,8n1h,44,1,1st Grade,2,17,Happy,,1,0
107,Male,329,alln,45,1,1st Grade,2,18,Absent,2406.25,1,0
107,Male,329,8n1a,46,1,1st Grade,2,19,Angry,,1,0
107,Male,329,alln,47,1,1st Grade,2,20,Absent,2687.5,1,0
107,Male,329,alln,48,1,1st Grade,2,21,Absent,,1,0
107,Male,329,8n1a,49,1,1st Grade,2,22,Angry,,1,0
107,Male,329,8n1a,50,1,1st Grade,2,23,Angry,1703.125,1,0
107,Male,329,8n1h,51,1,1st Grade,2,24,Happy,3265.625,1,0
107,Male,329,alln,52,1,1st Grade,2,25,Absent,,1,0
107,Male,329,8n1a,53,1,1st Grade,2,26,Angry,2281.25,1,0
107,Male,329,alln,54,1,1st Grade,2,27,Absent,2515.625,1,0
108,Female,345,8n1h,1,1,1st Grade,1,1,Happy,3484.375,1,0
108,Female,345,8n1a,2,1,1st Grade,1,2,Angry,3296.875,1,0
108,Female,345,8n1h,3,1,1st Grade,1,3,Happy,3421.875,1,0
108,Female,345,8n1a,4,1,1st Grade,1,4,Angry,1671.875,1,0
108,Female,345,alln,5,1,1st Grade,1,5,Absent,3781.25,1,0
108,Female,345,8n1h,6,1,1st Grade,1,6,Happy,2375,1,0
108,Female,345,8n1h,7,1,1st Grade,1,7,Happy,4437.5,1,0
108,Female,345,8n1a,8,1,1st Grade,1,8,Angry,4437.5,1,0
108,Female,345,alln,9,1,1st Grade,1,9,Absent,3687.5,1,0
108,Female,345,8n1h,10,1,1st Grade,1,10,Happy,2921.875,1,0
108,Female,345,8n1a,11,1,1st Grade,1,11,Angry,3421.875,1,0
108,Female,345,8n1h,12,1,1st Grade,1,12,Happy,1406.25,1,0
108,Female,345,8n1a,13,1,1st Grade,1,13,Angry,1093.75,1,0
108,Female,345,alln,14,1,1st Grade,1,14,Absent,3046.875,0,1
108,Female,345,8n1a,15,1,1st Grade,1,15,Angry,3171.875,1,0
108,Female,345,alln,16,1,1st Grade,1,16,Absent,3515.625,0,1
108,Female,345,8n1h,17,1,1st Grade,1,17,Happy,2390.625,1,0
108,Female,345,8n1a,18,1,1st Grade,1,18,Angry,3625,1,0
108,Female,345,alln,19,1,1st Grade,1,19,Absent,3281.25,0,1
108,Female,345,8n1h,20,1,1st Grade,1,20,Happy,3484.375,1,0
108,Female,345,alln,21,1,1st Grade,1,21,Absent,3234.375,0,1
108,Female,345,8n1a,22,1,1st Grade,1,22,Angry,2500,1,0
108,Female,345,alln,23,1,1st Grade,1,23,Absent,2578.125,0,1
108,Female,345,8n1a,24,1,1st Grade,1,24,Angry,3031.25,1,0
108,Female,345,alln,25,1,1st Grade,1,25,Absent,1921.875,0,1
108,Female,345,alln,26,1,1st Grade,1,26,Absent,3500,1,0
108,Female,345,8n1h,27,1,1st Grade,1,27,Happy,5328.125,1,0
108,Female,345,8n1h,28,1,1st Grade,2,1,Happy,1796.875,1,0
108,Female,345,8n1a,29,1,1st Grade,2,2,Angry,3578.125,1,0
108,Female,345,8n1a,30,1,1st Grade,2,3,Angry,3250,1,0
108,Female,345,8n1h,31,1,1st Grade,2,4,Happy,3328.125,1,0
108,Female,345,8n1a,32,1,1st Grade,2,5,Angry,4328.125,1,0
108,Female,345,8n1h,33,1,1st Grade,2,6,Happy,2718.75,1,0
108,Female,345,8n1a,34,1,1st Grade,2,7,Angry,2250,1,0
108,Female,345,8n1h,35,1,1st Grade,2,8,Happy,2468.75,1,0
108,Female,345,8n1h,36,1,1st Grade,2,9,Happy,3546.875,1,0
108,Female,345,alln,37,1,1st Grade,2,10,Absent,2796.875,0,1
108,Female,345,alln,38,1,1st Grade,2,11,Absent,2968.75,0,1
108,Female,345,8n1a,39,1,1st Grade,2,12,Angry,3281.25,1,0
108,Female,345,8n1a,40,1,1st Grade,2,13,Angry,4812.5,1,0
108,Female,345,8n1a,41,1,1st Grade,2,14,Angry,2765.625,1,0
108,Female,345,alln,42,1,1st Grade,2,15,Absent,3515.625,0,1
108,Female,345,alln,43,1,1st Grade,2,16,Absent,2718.75,0,1
108,Female,345,8n1h,44,1,1st Grade,2,17,Happy,1500,1,0
108,Female,345,8n1h,45,1,1st Grade,2,18,Happy,3796.875,1,0
108,Female,345,alln,46,1,1st Grade,2,19,Absent,3734.375,1,0
108,Female,345,8n1a,47,1,1st Grade,2,20,Angry,4562.5,1,0
108,Female,345,alln,48,1,1st Grade,2,21,Absent,2375,0,1
108,Female,345,alln,49,1,1st Grade,2,22,Absent,4203.125,1,0
108,Female,345,8n1h,50,1,1st Grade,2,23,Happy,2937.5,1,0
108,Female,345,alln,51,1,1st Grade,2,24,Absent,3843.75,1,0
108,Female,345,8n1h,52,1,1st Grade,2,25,Happy,3437.5,1,0
108,Female,345,8n1a,53,1,1st Grade,2,26,Angry,1703.125,1,0
108,Female,345,alln,54,1,1st Grade,2,27,Absent,2953.125,0,1
108,Female,345,8n1h,55,1,1st Grade,3,1,Happy,2015.625,1,0
108,Female,345,alln,56,1,1st Grade,3,2,Absent,1578.125,0,1
108,Female,345,alln,57,1,1st Grade,3,3,Absent,2453.125,1,0
108,Female,345,8n1a,58,1,1st Grade,3,4,Angry,2828.125,1,0
108,Female,345,8n1h,59,1,1st Grade,3,5,Happy,2406.25,1,0
108,Female,345,alln,60,1,1st Grade,3,6,Absent,1953.125,1,0
108,Female,345,8n1a,61,1,1st Grade,3,7,Angry,3453.125,1,0
108,Female,345,8n1h,62,1,1st Grade,3,8,Happy,2375,1,0
108,Female,345,alln,63,1,1st Grade,3,9,Absent,2578.125,1,0
108,Female,345,8n1h,64,1,1st Grade,3,10,Happy,3984.375,0,1
108,Female,345,alln,65,1,1st Grade,3,11,Absent,2343.75,1,0
108,Female,345,8n1h,66,1,1st Grade,3,12,Happy,3421.875,0,1
108,Female,345,alln,67,1,1st Grade,3,13,Absent,3687.5,1,0
108,Female,345,8n1a,68,1,1st Grade,3,14,Angry,1281.25,1,0
108,Female,345,alln,69,1,1st Grade,3,15,Absent,2843.75,1,0
108,Female,345,8n1h,70,1,1st Grade,3,16,Happy,3031.25,0,1
108,Female,345,8n1h,71,1,1st Grade,3,17,Happy,3296.875,0,1
108,Female,345,8n1a,72,1,1st Grade,3,18,Angry,2609.375,1,0
108,Female,345,8n1a,73,1,1st Grade,3,19,Angry,2906.25,1,0
108,Female,345,8n1h,74,1,1st Grade,3,20,Happy,3171.875,1,0
108,Female,345,8n1a,75,1,1st Grade,3,21,Angry,2968.75,1,0
108,Female,345,alln,76,1,1st Grade,3,22,Absent,1703.125,1,0
108,Female,345,8n1a,77,1,1st Grade,3,23,Angry,3859.375,1,0
108,Female,345,8n1h,78,1,1st Grade,3,24,Happy,2921.875,0,1
108,Female,345,8n1a,79,1,1st Grade,3,25,Angry,2843.75,1,0
108,Female,345,alln,80,1,1st Grade,3,26,Absent,2906.25,1,0
108,Female,345,8n1a,81,1,1st Grade,3,27,Angry,3078.125,1,0
109,Male,341,alln,1,1,1st Grade,1,1,Absent,2609.375,0,1
109,Male,341,alln,2,1,1st Grade,1,2,Absent,5375,1,0
109,Male,341,alln,3,1,1st Grade,1,3,Absent,3687.5,1,0
109,Male,341,8n1h,4,1,1st Grade,1,4,Happy,4500,1,0
109,Male,341,8n1a,5,1,1st Grade,1,5,Angry,4890.625,0,1
109,Male,341,8n1a,6,1,1st Grade,1,6,Angry,4718.75,1,0
109,Male,341,alln,7,1,1st Grade,1,7,Absent,4140.625,1,0
109,Male,341,8n1h,8,1,1st Grade,1,8,Happy,3500,1,0
109,Male,341,alln,9,1,1st Grade,1,9,Absent,2609.375,1,0
109,Male,341,alln,10,1,1st Grade,1,10,Absent,2703.125,1,0
109,Male,341,8n1h,11,1,1st Grade,1,11,Happy,2625,0,1
109,Male,341,alln,12,1,1st Grade,1,12,Absent,2828.125,1,0
109,Male,341,8n1a,13,1,1st Grade,1,13,Angry,6046.875,1,0
109,Male,341,alln,14,1,1st Grade,1,14,Absent,2906.25,1,0
109,Male,341,alln,15,1,1st Grade,1,15,Absent,2593.75,1,0
109,Male,341,8n1a,16,1,1st Grade,1,16,Angry,4546.875,1,0
109,Male,341,8n1a,17,1,1st Grade,1,17,Angry,5031.25,1,0
109,Male,341,8n1a,18,1,1st Grade,1,18,Angry,4687.5,1,0
109,Male,341,8n1a,19,1,1st Grade,1,19,Angry,5078.125,1,0
109,Male,341,8n1a,20,1,1st Grade,1,20,Angry,4140.625,1,0
109,Male,341,8n1a,21,1,1st Grade,1,21,Angry,3703.125,1,0
109,Male,341,8n1h,22,1,1st Grade,1,22,Happy,4343.75,1,0
109,Male,341,8n1h,23,1,1st Grade,1,23,Happy,3984.375,1,0
109,Male,341,8n1h,24,1,1st Grade,1,24,Happy,4750,0,1
109,Male,341,8n1h,25,1,1st Grade,1,25,Happy,2812.5,0,1
109,Male,341,8n1h,26,1,1st Grade,1,26,Happy,2828.125,0,1
109,Male,341,8n1h,27,1,1st Grade,1,27,Happy,4140.625,1,0
109,Male,341,alln,28,1,1st Grade,2,1,Absent,2234.375,1,0
109,Male,341,alln,29,1,1st Grade,2,2,Absent,3125,1,0
109,Male,341,8n1h,30,1,1st Grade,2,3,Happy,2500,1,0
109,Male,341,8n1h,31,1,1st Grade,2,4,Happy,4187.5,1,0
109,Male,341,8n1h,32,1,1st Grade,2,5,Happy,1546.875,0,1
109,Male,341,alln,33,1,1st Grade,2,6,Absent,3437.5,1,0
109,Male,341,alln,34,1,1st Grade,2,7,Absent,3750,1,0
109,Male,341,alln,35,1,1st Grade,2,8,Absent,2578.125,1,0
109,Male,341,8n1a,36,1,1st Grade,2,9,Angry,3156.25,1,0
109,Male,341,8n1a,37,1,1st Grade,2,10,Angry,1781.25,0,1
109,Male,341,8n1a,38,1,1st Grade,2,11,Angry,2015.625,1,0
109,Male,341,8n1a,39,1,1st Grade,2,12,Angry,3625,1,0
109,Male,341,8n1a,40,1,1st Grade,2,13,Angry,4312.5,1,0
109,Male,341,8n1a,41,1,1st Grade,2,14,Angry,3375,1,0
109,Male,341,8n1h,42,1,1st Grade,2,15,Happy,3234.375,0,1
109,Male,341,8n1h,43,1,1st Grade,2,16,Happy,4406.25,0,1
109,Male,341,alln,44,1,1st Grade,2,17,Absent,3140.625,1,0
109,Male,341,alln,45,1,1st Grade,2,18,Absent,2859.375,1,0
109,Male,341,8n1h,46,1,1st Grade,2,19,Happy,3375,0,1
109,Male,341,alln,47,1,1st Grade,2,20,Absent,5156.25,1,0
109,Male,341,8n1a,48,1,1st Grade,2,21,Angry,3234.375,1,0
109,Male,341,8n1h,49,1,1st Grade,2,22,Happy,4937.5,1,0
109,Male,341,8n1a,50,1,1st Grade,2,23,Angry,3234.375,1,0
109,Male,341,alln,51,1,1st Grade,2,24,Absent,2187.5,1,0
109,Male,341,8n1h,52,1,1st Grade,2,25,Happy,1468.75,0,1
109,Male,341,8n1h,53,1,1st Grade,2,26,Happy,6640.625,1,0
109,Male,341,8n1a,54,1,1st Grade,2,27,Angry,5875,1,0
109,Male,341,alln,55,1,1st Grade,3,1,Absent,3921.875,1,0
109,Male,341,8n1a,56,1,1st Grade,3,2,Angry,3375,1,0
109,Male,341,8n1h,57,1,1st Grade,3,3,Happy,1234.375,1,0
109,Male,341,8n1h,58,1,1st Grade,3,4,Happy,2468.75,0,1
109,Male,341,alln,59,1,1st Grade,3,5,Absent,3250,1,0
109,Male,341,8n1h,60,1,1st Grade,3,6,Happy,3406.25,0,1
109,Male,341,8n1a,61,1,1st Grade,3,7,Angry,3062.5,1,0
109,Male,341,alln,62,1,1st Grade,3,8,Absent,2703.125,1,0
109,Male,341,8n1h,63,1,1st Grade,3,9,Happy,3031.25,1,0
109,Male,341,8n1a,64,1,1st Grade,3,10,Angry,2968.75,1,0
109,Male,341,alln,65,1,1st Grade,3,11,Absent,3750,1,0
109,Male,341,8n1h,66,1,1st Grade,3,12,Happy,1296.875,0,1
109,Male,341,8n1h,67,1,1st Grade,3,13,Happy,2812.5,0,1
109,Male,341,8n1a,68,1,1st Grade,3,14,Angry,2375,1,0
109,Male,341,alln,69,1,1st Grade,3,15,Absent,3750,1,0
109,Male,341,alln,70,1,1st Grade,3,16,Absent,4109.375,1,0
109,Male,341,alln,71,1,1st Grade,3,17,Absent,4140.625,0,1
109,Male,341,8n1a,72,1,1st Grade,3,18,Angry,2500,1,0
109,Male,341,8n1h,73,1,1st Grade,3,19,Happy,1500,0,1
109,Male,341,8n1a,74,1,1st Grade,3,20,Angry,2078.125,1,0
109,Male,341,8n1a,75,1,1st Grade,3,21,Angry,3421.875,1,0
109,Male,341,8n1h,76,1,1st Grade,3,22,Happy,3406.25,0,1
109,Male,341,8n1a,77,1,1st Grade,3,23,Angry,2890.625,0,1
109,Male,341,alln,78,1,1st Grade,3,24,Absent,3390.625,1,0
109,Male,341,alln,79,1,1st Grade,3,25,Absent,2984.375,1,0
109,Male,341,8n1h,80,1,1st Grade,3,26,Happy,1953.125,0,1
109,Male,341,8n1a,81,1,1st Grade,3,27,Angry,2625,1,0
110,Female,314,8n1h,1,1,1st Grade,1,1,Happy,2500,1,0
110,Female,314,8n1h,2,1,1st Grade,1,2,Happy,2828.125,1,0
110,Female,314,8n1a,3,1,1st Grade,1,3,Angry,4312.5,1,0
110,Female,314,alln,4,1,1st Grade,1,4,Absent,3703.125,1,0
110,Female,314,alln,5,1,1st Grade,1,5,Absent,2390.625,1,0
110,Female,314,8n1h,6,1,1st Grade,1,6,Happy,2500,1,0
110,Female,314,8n1a,7,1,1st Grade,1,7,Angry,1859.375,1,0
110,Female,314,8n1a,8,1,1st Grade,1,8,Angry,2203.125,1,0
110,Female,314,8n1h,9,1,1st Grade,1,9,Happy,3484.375,0,1
110,Female,314,8n1h,10,1,1st Grade,1,10,Happy,2062.5,0,1
110,Female,314,alln,11,1,1st Grade,1,11,Absent,2265.625,1,0
110,Female,314,8n1a,12,1,1st Grade,1,12,Angry,4968.75,1,0
110,Female,314,8n1a,13,1,1st Grade,1,13,Angry,1609.375,1,0
110,Female,314,alln,14,1,1st Grade,1,14,Absent,4687.5,1,0
110,Female,314,8n1a,15,1,1st Grade,1,15,Angry,2265.625,0,1
110,Female,314,8n1h,16,1,1st Grade,1,16,Happy,1281.25,1,0
110,Female,314,8n1h,17,1,1st Grade,1,17,Happy,2906.25,1,0
110,Female,314,alln,18,1,1st Grade,1,18,Absent,1437.5,0,1
110,Female,314,8n1a,19,1,1st Grade,1,19,Angry,4250,1,0
110,Female,314,alln,20,1,1st Grade,1,20,Absent,1921.875,1,0
110,Female,314,8n1a,21,1,1st Grade,1,21,Angry,3546.875,0,1
110,Female,314,alln,22,1,1st Grade,1,22,Absent,2625,1,0
110,Female,314,alln,23,1,1st Grade,1,23,Absent,3437.5,1,0
110,Female,314,8n1a,24,1,1st Grade,1,24,Angry,1187.5,1,0
110,Female,314,alln,25,1,1st Grade,1,25,Absent,2546.875,1,0
110,Female,314,8n1h,26,1,1st Grade,1,26,Happy,2015.625,0,1
110,Female,314,8n1h,27,1,1st Grade,1,27,Happy,3515.625,0,1
110,Female,314,alln,28,1,1st Grade,2,1,Absent,3312.5,1,0
110,Female,314,alln,29,1,1st Grade,2,2,Absent,4578.125,1,0
110,Female,314,8n1h,30,1,1st Grade,2,3,Happy,4000,0,1
110,Female,314,alln,31,1,1st Grade,2,4,Absent,3640.625,1,0
110,Female,314,alln,32,1,1st Grade,2,5,Absent,6171.875,1,0
110,Female,314,8n1a,33,1,1st Grade,2,6,Angry,4000,1,0
110,Female,314,8n1h,34,1,1st Grade,2,7,Happy,3765.625,1,0
110,Female,314,8n1h,35,1,1st Grade,2,8,Happy,6781.25,0,1
110,Female,314,8n1h,36,1,1st Grade,2,9,Happy,3687.5,1,0
110,Female,314,alln,37,1,1st Grade,2,10,Absent,,1,0
110,Female,314,8n1a,38,1,1st Grade,2,11,Angry,4531.25,0,1
110,Female,314,8n1h,39,1,1st Grade,2,12,Happy,4937.5,1,0
110,Female,314,8n1h,40,1,1st Grade,2,13,Happy,4250,1,0
110,Female,314,8n1a,41,1,1st Grade,2,14,Angry,2406.25,0,1
110,Female,314,8n1h,42,1,1st Grade,2,15,Happy,4625,0,1
110,Female,314,8n1a,43,1,1st Grade,2,16,Angry,5406.25,1,0
110,Female,314,8n1a,44,1,1st Grade,2,17,Angry,2218.75,0,1
110,Female,314,8n1h,45,1,1st Grade,2,18,Happy,4000,1,0
110,Female,314,8n1a,46,1,1st Grade,2,19,Angry,4000,1,0
110,Female,314,alln,47,1,1st Grade,2,20,Absent,3921.875,1,0
110,Female,314,alln,48,1,1st Grade,2,21,Absent,2875,1,0
110,Female,314,8n1a,49,1,1st Grade,2,22,Angry,3437.5,1,0
110,Female,314,8n1a,50,1,1st Grade,2,23,Angry,5984.375,1,0
110,Female,314,alln,51,1,1st Grade,2,24,Absent,1875,1,0
110,Female,314,8n1a,52,1,1st Grade,2,25,Angry,2375,0,1
110,Female,314,8n1h,53,1,1st Grade,2,26,Happy,3125,1,0
110,Female,314,alln,54,1,1st Grade,2,27,Absent,3687.5,1,0
110,Female,314,alln,55,1,1st Grade,3,1,Absent,3546.875,1,0
110,Female,314,8n1h,56,1,1st Grade,3,2,Happy,2718.75,0,1
110,Female,314,8n1h,57,1,1st Grade,3,3,Happy,2000,1,0
110,Female,314,8n1a,58,1,1st Grade,3,4,Angry,3250,1,0
110,Female,314,8n1h,59,1,1st Grade,3,5,Happy,4171.875,1,0
110,Female,314,8n1h,60,1,1st Grade,3,6,Happy,4265.625,1,0
110,Female,314,alln,61,1,1st Grade,3,7,Absent,2109.375,1,0
110,Female,314,alln,62,1,1st Grade,3,8,Absent,3765.625,1,0
110,Female,314,8n1a,63,1,1st Grade,3,9,Angry,4046.875,0,1
110,Female,314,8n1a,64,1,1st Grade,3,10,Angry,4546.875,0,1
110,Female,314,8n1h,65,1,1st Grade,3,11,Happy,3187.5,0,1
110,Female,314,alln,66,1,1st Grade,3,12,Absent,4265.625,1,0
110,Female,314,alln,67,1,1st Grade,3,13,Absent,5406.25,1,0
110,Female,314,8n1h,68,1,1st Grade,3,14,Happy,3828.125,0,1
110,Female,314,8n1a,69,1,1st Grade,3,15,Angry,6515.625,1,0
110,Female,314,8n1a,70,1,1st Grade,3,16,Angry,4000,0,1
110,Female,314,8n1h,71,1,1st Grade,3,17,Happy,1765.625,0,1
110,Female,314,alln,72,1,1st Grade,3,18,Absent,2828.125,1,0
110,Female,314,alln,73,1,1st Grade,3,19,Absent,3859.375,1,0
110,Female,314,8n1a,74,1,1st Grade,3,20,Angry,4343.75,0,1
110,Female,314,8n1h,75,1,1st Grade,3,21,Happy,3984.375,0,1
110,Female,314,8n1h,76,1,1st Grade,3,22,Happy,2750,0,1
110,Female,314,8n1a,77,1,1st Grade,3,23,Angry,4328.125,0,1
110,Female,314,8n1a,78,1,1st Grade,3,24,Angry,4046.875,0,1
110,Female,314,alln,79,1,1st Grade,3,25,Absent,4875,1,0
110,Female,314,alln,80,1,1st Grade,3,26,Absent,2140.625,1,0
110,Female,314,8n1a,81,1,1st Grade,3,27,Angry,4937.5,0,1
111,Male,365,8n1a,1,1,1st Grade,1,1,Angry,7406.25,1,0
111,Male,365,8n1a,2,1,1st Grade,1,2,Angry,2062.5,1,0
111,Male,365,8n1a,3,1,1st Grade,1,3,Angry,2609.375,1,0
111,Male,365,8n1a,4,1,1st Grade,1,4,Angry,4609.375,1,0
111,Male,365,8n1a,5,1,1st Grade,1,5,Angry,3171.875,1,0
111,Male,365,8n1h,6,1,1st Grade,1,6,Happy,3234.375,0,1
111,Male,365,alln,7,1,1st Grade,1,7,Absent,4656.25,1,0
111,Male,365,8n1h,8,1,1st Grade,1,8,Happy,2328.125,0,1
111,Male,365,alln,9,1,1st Grade,1,9,Absent,2656.25,1,0
111,Male,365,8n1h,10,1,1st Grade,1,10,Happy,1750,0,1
111,Male,365,alln,11,1,1st Grade,1,11,Absent,3187.5,1,0
111,Male,365,alln,12,1,1st Grade,1,12,Absent,4968.75,1,0
111,Male,365,8n1h,13,1,1st Grade,1,13,Happy,7484.375,0,1
111,Male,365,alln,14,1,1st Grade,1,14,Absent,2640.625,1,0
111,Male,365,8n1h,15,1,1st Grade,1,15,Happy,4921.875,0,1
111,Male,365,8n1a,16,1,1st Grade,1,16,Angry,4625,1,0
111,Male,365,alln,17,1,1st Grade,1,17,Absent,4531.25,1,0
111,Male,365,8n1a,18,1,1st Grade,1,18,Angry,4015.625,1,0
111,Male,365,8n1a,19,1,1st Grade,1,19,Angry,2828.125,0,1
111,Male,365,8n1a,20,1,1st Grade,1,20,Angry,2218.75,1,0
111,Male,365,8n1h,21,1,1st Grade,1,21,Happy,4546.875,0,1
111,Male,365,8n1h,22,1,1st Grade,1,22,Happy,5328.125,0,1
111,Male,365,alln,23,1,1st Grade,1,23,Absent,6421.875,1,0
111,Male,365,8n1h,24,1,1st Grade,1,24,Happy,3703.125,0,1
111,Male,365,alln,25,1,1st Grade,1,25,Absent,2718.75,1,0
111,Male,365,8n1h,26,1,1st Grade,1,26,Happy,3265.625,0,1
111,Male,365,alln,27,1,1st Grade,1,27,Absent,1906.25,1,0
111,Male,365,8n1a,28,1,1st Grade,2,1,Angry,4234.375,1,0
111,Male,365,8n1h,29,1,1st Grade,2,2,Happy,5078.125,0,1
111,Male,365,8n1a,30,1,1st Grade,2,3,Angry,3843.75,1,0
111,Male,365,8n1a,31,1,1st Grade,2,4,Angry,3828.125,1,0
111,Male,365,8n1h,32,1,1st Grade,2,5,Happy,4453.125,1,0
111,Male,365,alln,33,1,1st Grade,2,6,Absent,4078.125,1,0
111,Male,365,8n1h,34,1,1st Grade,2,7,Happy,7234.375,1,0
111,Male,365,8n1a,35,1,1st Grade,2,8,Angry,7656.25,1,0
111,Male,365,alln,36,1,1st Grade,2,9,Absent,3078.125,1,0
111,Male,365,8n1a,37,1,1st Grade,2,10,Angry,2453.125,1,0
111,Male,365,8n1h,38,1,1st Grade,2,11,Happy,1843.75,1,0
111,Male,365,alln,39,1,1st Grade,2,12,Absent,1765.625,1,0
111,Male,365,alln,40,1,1st Grade,2,13,Absent,4390.625,1,0
111,Male,365,alln,41,1,1st Grade,2,14,Absent,3218.75,1,0
111,Male,365,8n1a,42,1,1st Grade,2,15,Angry,4718.75,1,0
111,Male,365,8n1h,43,1,1st Grade,2,16,Happy,4859.375,1,0
111,Male,365,8n1h,44,1,1st Grade,2,17,Happy,5218.75,0,1
111,Male,365,8n1h,45,1,1st Grade,2,18,Happy,3593.75,1,0
111,Male,365,8n1a,46,1,1st Grade,2,19,Angry,4515.625,1,0
111,Male,365,alln,47,1,1st Grade,2,20,Absent,3109.375,0,1
111,Male,365,alln,48,1,1st Grade,2,21,Absent,2078.125,1,0
111,Male,365,8n1h,49,1,1st Grade,2,22,Happy,2171.875,1,0
111,Male,365,alln,50,1,1st Grade,2,23,Absent,1812.5,1,0
111,Male,365,8n1a,51,1,1st Grade,2,24,Angry,5546.875,1,0
111,Male,365,8n1h,52,1,1st Grade,2,25,Happy,2234.375,1,0
111,Male,365,8n1a,53,1,1st Grade,2,26,Angry,3031.25,1,0
111,Male,365,alln,54,1,1st Grade,2,27,Absent,5515.625,1,0
111,Male,365,8n1a,55,1,1st Grade,3,1,Angry,5328.125,1,0
111,Male,365,alln,56,1,1st Grade,3,2,Absent,3250,1,0
111,Male,365,alln,57,1,1st Grade,3,3,Absent,4390.625,1,0
111,Male,365,8n1a,58,1,1st Grade,3,4,Angry,2046.875,1,0
111,Male,365,8n1h,59,1,1st Grade,3,5,Happy,4468.75,1,0
111,Male,365,alln,60,1,1st Grade,3,6,Absent,3640.625,1,0
111,Male,365,alln,61,1,1st Grade,3,7,Absent,5609.375,1,0
111,Male,365,8n1h,62,1,1st Grade,3,8,Happy,5968.75,1,0
111,Male,365,8n1h,63,1,1st Grade,3,9,Happy,4281.25,1,0
111,Male,365,8n1h,64,1,1st Grade,3,10,Happy,3171.875,1,0
111,Male,365,8n1a,65,1,1st Grade,3,11,Angry,2343.75,1,0
111,Male,365,alln,66,1,1st Grade,3,12,Absent,4187.5,1,0
111,Male,365,8n1h,67,1,1st Grade,3,13,Happy,4390.625,0,1
111,Male,365,8n1h,68,1,1st Grade,3,14,Happy,5906.25,1,0
111,Male,365,8n1a,69,1,1st Grade,3,15,Angry,4296.875,1,0
111,Male,365,8n1a,70,1,1st Grade,3,16,Angry,5234.375,1,0
111,Male,365,8n1h,71,1,1st Grade,3,17,Happy,5578.125,1,0
111,Male,365,8n1a,72,1,1st Grade,3,18,Angry,4593.75,0,1
111,Male,365,8n1h,73,1,1st Grade,3,19,Happy,2937.5,1,0
111,Male,365,8n1h,74,1,1st Grade,3,20,Happy,2156.25,1,0
111,Male,365,alln,75,1,1st Grade,3,21,Absent,3000,1,0
111,Male,365,alln,76,1,1st Grade,3,22,Absent,3562.5,1,0
111,Male,365,8n1a,77,1,1st Grade,3,23,Angry,5296.875,1,0
111,Male,365,alln,78,1,1st Grade,3,24,Absent,5078.125,1,0
111,Male,365,8n1a,79,1,1st Grade,3,25,Angry,5187.5,1,0
111,Male,365,alln,80,1,1st Grade,3,26,Absent,4890.625,1,0
111,Male,365,8n1a,81,1,1st Grade,3,27,Angry,2593.75,1,0
112,Male,374,8n1h,1,1,1st Grade,1,1,Happy,4140.625,1,0
112,Male,374,alln,2,1,1st Grade,1,2,Absent,4437.5,1,0
112,Male,374,alln,3,1,1st Grade,1,3,Absent,1921.875,1,0
112,Male,374,8n1a,4,1,1st Grade,1,4,Angry,2421.875,0,1
112,Male,374,alln,5,1,1st Grade,1,5,Absent,5546.875,1,0
112,Male,374,alln,6,1,1st Grade,1,6,Absent,4484.375,1,0
112,Male,374,8n1h,7,1,1st Grade,1,7,Happy,4562.5,1,0
112,Male,374,8n1a,8,1,1st Grade,1,8,Angry,3250,1,0
112,Male,374,8n1a,9,1,1st Grade,1,9,Angry,3140.625,1,0
112,Male,374,8n1h,10,1,1st Grade,1,10,Happy,3046.875,0,1
112,Male,374,8n1h,11,1,1st Grade,1,11,Happy,4171.875,1,0
112,Male,374,8n1h,12,1,1st Grade,1,12,Happy,4531.25,1,0
112,Male,374,8n1a,13,1,1st Grade,1,13,Angry,4265.625,0,1
112,Male,374,alln,14,1,1st Grade,1,14,Absent,5484.375,1,0
112,Male,374,alln,15,1,1st Grade,1,15,Absent,4781.25,1,0
112,Male,374,8n1a,16,1,1st Grade,1,16,Angry,4578.125,0,1
112,Male,374,8n1h,17,1,1st Grade,1,17,Happy,6078.125,1,0
112,Male,374,8n1h,18,1,1st Grade,1,18,Happy,2375,0,1
112,Male,374,8n1h,19,1,1st Grade,1,19,Happy,5343.75,1,0
112,Male,374,alln,20,1,1st Grade,1,20,Absent,3953.125,1,0
112,Male,374,8n1a,21,1,1st Grade,1,21,Angry,3515.625,1,0
112,Male,374,alln,22,1,1st Grade,1,22,Absent,3218.75,1,0
112,Male,374,alln,23,1,1st Grade,1,23,Absent,4390.625,1,0
112,Male,374,8n1a,24,1,1st Grade,1,24,Angry,7984.375,1,0
112,Male,374,8n1a,25,1,1st Grade,1,25,Angry,3171.875,1,0
112,Male,374,8n1h,26,1,1st Grade,1,26,Happy,3515.625,1,0
112,Male,374,8n1a,27,1,1st Grade,1,27,Angry,5828.125,1,0
112,Male,374,8n1h,28,1,1st Grade,2,1,Happy,3171.875,1,0
112,Male,374,8n1h,29,1,1st Grade,2,2,Happy,2218.75,1,0
112,Male,374,alln,30,1,1st Grade,2,3,Absent,2671.875,1,0
112,Male,374,8n1a,31,1,1st Grade,2,4,Angry,4703.125,1,0
112,Male,374,8n1h,32,1,1st Grade,2,5,Happy,4000,1,0
112,Male,374,alln,33,1,1st Grade,2,6,Absent,4031.25,1,0
112,Male,374,alln,34,1,1st Grade,2,7,Absent,2687.5,1,0
112,Male,374,8n1a,35,1,1st Grade,2,8,Angry,5359.375,1,0
112,Male,374,8n1a,36,1,1st Grade,2,9,Angry,2406.25,1,0
112,Male,374,alln,37,1,1st Grade,2,10,Absent,2281.25,1,0
112,Male,374,8n1a,38,1,1st Grade,2,11,Angry,5031.25,1,0
112,Male,374,8n1h,39,1,1st Grade,2,12,Happy,2859.375,1,0
112,Male,374,alln,40,1,1st Grade,2,13,Absent,3531.25,1,0
112,Male,374,8n1h,41,1,1st Grade,2,14,Happy,4421.875,1,0
112,Male,374,8n1h,42,1,1st Grade,2,15,Happy,3281.25,1,0
112,Male,374,8n1a,43,1,1st Grade,2,16,Angry,4718.75,1,0
112,Male,374,8n1a,44,1,1st Grade,2,17,Angry,3500,1,0
112,Male,374,alln,45,1,1st Grade,2,18,Absent,3718.75,1,0
112,Male,374,alln,46,1,1st Grade,2,19,Absent,2343.75,1,0
112,Male,374,8n1a,47,1,1st Grade,2,20,Angry,5078.125,1,0
112,Male,374,8n1h,48,1,1st Grade,2,21,Happy,3218.75,1,0
112,Male,374,8n1a,49,1,1st Grade,2,22,Angry,4906.25,1,0
112,Male,374,8n1a,50,1,1st Grade,2,23,Angry,3281.25,1,0
112,Male,374,8n1h,51,1,1st Grade,2,24,Happy,4687.5,1,0
112,Male,374,alln,52,1,1st Grade,2,25,Absent,2359.375,1,0
112,Male,374,8n1h,53,1,1st Grade,2,26,Happy,4671.875,1,0
112,Male,374,alln,54,1,1st Grade,2,27,Absent,3078.125,1,0
112,Male,374,alln,55,1,1st Grade,3,1,Absent,2609.375,1,0
112,Male,374,8n1h,56,1,1st Grade,3,2,Happy,2578.125,1,0
112,Male,374,8n1a,57,1,1st Grade,3,3,Angry,3953.125,1,0
112,Male,374,alln,58,1,1st Grade,3,4,Absent,2234.375,1,0
112,Male,374,8n1h,59,1,1st Grade,3,5,Happy,3718.75,1,0
112,Male,374,8n1a,60,1,1st Grade,3,6,Angry,4296.875,1,0
112,Male,374,8n1a,61,1,1st Grade,3,7,Angry,4125,1,0
112,Male,374,alln,62,1,1st Grade,3,8,Absent,4593.75,1,0
112,Male,374,8n1h,63,1,1st Grade,3,9,Happy,4265.625,1,0
112,Male,374,8n1a,64,1,1st Grade,3,10,Angry,2593.75,1,0
112,Male,374,alln,65,1,1st Grade,3,11,Absent,3703.125,1,0
112,Male,374,8n1a,66,1,1st Grade,3,12,Angry,1906.25,1,0
112,Male,374,8n1h,67,1,1st Grade,3,13,Happy,1828.125,1,0
112,Male,374,8n1h,68,1,1st Grade,3,14,Happy,4875,1,0
112,Male,374,8n1h,69,1,1st Grade,3,15,Happy,2937.5,1,0
112,Male,374,alln,70,1,1st Grade,3,16,Absent,3750,1,0
112,Male,374,8n1a,71,1,1st Grade,3,17,Angry,4218.75,1,0
112,Male,374,8n1h,72,1,1st Grade,3,18,Happy,3468.75,0,1
112,Male,374,8n1a,73,1,1st Grade,3,19,Angry,4828.125,1,0
112,Male,374,8n1h,74,1,1st Grade,3,20,Happy,2765.625,1,0
112,Male,374,alln,75,1,1st Grade,3,21,Absent,2593.75,1,0
112,Male,374,8n1a,76,1,1st Grade,3,22,Angry,3984.375,1,0
112,Male,374,alln,77,1,1st Grade,3,23,Absent,2484.375,1,0
112,Male,374,8n1a,78,1,1st Grade,3,24,Angry,4562.5,1,0
112,Male,374,alln,79,1,1st Grade,3,25,Absent,4296.875,1,0
112,Male,374,8n1h,80,1,1st Grade,3,26,Happy,3531.25,1,0
112,Male,374,alln,81,1,1st Grade,3,27,Absent,1515.625,1,0
113,Female,320,8n1h,1,1,1st Grade,1,1,Happy,5703.125,1,0
113,Female,320,8n1h,2,1,1st Grade,1,2,Happy,6203.125,1,0
113,Female,320,8n1h,3,1,1st Grade,1,3,Happy,6562.5,1,0
113,Female,320,8n1a,4,1,1st Grade,1,4,Angry,,1,0
113,Female,320,alln,5,1,1st Grade,1,5,Absent,,1,0
113,Female,320,alln,6,1,1st Grade,1,6,Absent,5062.5,1,0
113,Female,320,alln,7,1,1st Grade,1,7,Absent,5968.75,1,0
113,Female,320,alln,8,1,1st Grade,1,8,Absent,6593.75,1,0
113,Female,320,8n1a,9,1,1st Grade,1,9,Angry,7625,1,0
113,Female,320,8n1h,10,1,1st Grade,1,10,Happy,3312.5,1,0
113,Female,320,8n1a,11,1,1st Grade,1,11,Angry,8500,1,0
113,Female,320,8n1a,12,1,1st Grade,1,12,Angry,3312.5,1,0
113,Female,320,8n1a,13,1,1st Grade,1,13,Angry,5218.75,1,0
113,Female,320,8n1h,14,1,1st Grade,1,14,Happy,5031.25,1,0
113,Female,320,8n1h,15,1,1st Grade,1,15,Happy,4765.625,1,0
113,Female,320,8n1a,16,1,1st Grade,1,16,Angry,3031.25,1,0
113,Female,320,alln,17,1,1st Grade,1,17,Absent,3859.375,1,0
113,Female,320,alln,18,1,1st Grade,1,18,Absent,2734.375,1,0
113,Female,320,8n1h,19,1,1st Grade,1,19,Happy,5359.375,1,0
113,Female,320,alln,20,1,1st Grade,1,20,Absent,4234.375,1,0
113,Female,320,8n1a,21,1,1st Grade,1,21,Angry,4921.875,1,0
113,Female,320,alln,22,1,1st Grade,1,22,Absent,2484.375,1,0
113,Female,320,8n1h,23,1,1st Grade,1,23,Happy,5359.375,1,0
113,Female,320,8n1a,24,1,1st Grade,1,24,Angry,4203.125,1,0
113,Female,320,alln,25,1,1st Grade,1,25,Absent,2484.375,1,0
113,Female,320,8n1h,26,1,1st Grade,1,26,Happy,7421.875,1,0
113,Female,320,8n1a,27,1,1st Grade,1,27,Angry,2328.125,0,1
113,Female,320,8n1h,28,1,1st Grade,2,1,Happy,5656.25,1,0
113,Female,320,alln,29,1,1st Grade,2,2,Absent,2515.625,1,0
113,Female,320,8n1h,30,1,1st Grade,2,3,Happy,4265.625,1,0
113,Female,320,8n1a,31,1,1st Grade,2,4,Angry,3890.625,1,0
113,Female,320,8n1h,32,1,1st Grade,2,5,Happy,4359.375,1,0
113,Female,320,8n1a,33,1,1st Grade,2,6,Angry,2671.875,1,0
113,Female,320,8n1h,34,1,1st Grade,2,7,Happy,6906.25,1,0
113,Female,320,alln,35,1,1st Grade,2,8,Absent,4343.75,1,0
113,Female,320,8n1h,36,1,1st Grade,2,9,Happy,4234.375,1,0
113,Female,320,8n1h,37,1,1st Grade,2,10,Happy,4734.375,1,0
113,Female,320,8n1h,38,1,1st Grade,2,11,Happy,5015.625,1,0
113,Female,320,alln,39,1,1st Grade,2,12,Absent,4687.5,1,0
113,Female,320,8n1a,40,1,1st Grade,2,13,Angry,4656.25,1,0
113,Female,320,8n1a,41,1,1st Grade,2,14,Angry,3312.5,1,0
113,Female,320,alln,42,1,1st Grade,2,15,Absent,3515.625,1,0
113,Female,320,alln,43,1,1st Grade,2,16,Absent,4109.375,0,1
113,Female,320,alln,44,1,1st Grade,2,17,Absent,4421.875,0,1
113,Female,320,8n1a,45,1,1st Grade,2,18,Angry,4031.25,1,0
113,Female,320,alln,46,1,1st Grade,2,19,Absent,6078.125,1,0
113,Female,320,alln,47,1,1st Grade,2,20,Absent,5453.125,1,0
113,Female,320,8n1h,48,1,1st Grade,2,21,Happy,7046.875,1,0
113,Female,320,alln,49,1,1st Grade,2,22,Absent,9703.125,1,0
113,Female,320,8n1h,50,1,1st Grade,2,23,Happy,9750,0,1
113,Female,320,8n1a,51,1,1st Grade,2,24,Angry,4453.125,1,0
113,Female,320,8n1a,52,1,1st Grade,2,25,Angry,3734.375,1,0
113,Female,320,8n1a,53,1,1st Grade,2,26,Angry,4609.375,1,0
113,Female,320,8n1a,54,1,1st Grade,2,27,Angry,4250,1,0
113,Female,320,alln,55,1,1st Grade,3,1,Absent,7515.625,1,0
113,Female,320,alln,56,1,1st Grade,3,2,Absent,3843.75,1,0
113,Female,320,8n1h,57,1,1st Grade,3,3,Happy,2359.375,1,0
113,Female,320,alln,58,1,1st Grade,3,4,Absent,4343.75,1,0
113,Female,320,alln,59,1,1st Grade,3,5,Absent,2843.75,1,0
113,Female,320,8n1h,60,1,1st Grade,3,6,Happy,3953.125,1,0
113,Female,320,8n1h,61,1,1st Grade,3,7,Happy,3828.125,1,0
113,Female,320,alln,62,1,1st Grade,3,8,Absent,6046.875,0,1
113,Female,320,8n1h,63,1,1st Grade,3,9,Happy,4203.125,1,0
113,Female,320,8n1h,64,1,1st Grade,3,10,Happy,4359.375,1,0
113,Female,320,8n1a,65,1,1st Grade,3,11,Angry,3718.75,1,0
113,Female,320,8n1a,66,1,1st Grade,3,12,Angry,5218.75,1,0
113,Female,320,8n1h,67,1,1st Grade,3,13,Happy,2578.125,1,0
113,Female,320,8n1a,68,1,1st Grade,3,14,Angry,6203.125,1,0
113,Female,320,8n1h,69,1,1st Grade,3,15,Happy,4125,1,0
113,Female,320,8n1a,70,1,1st Grade,3,16,Angry,2921.875,1,0
113,Female,320,8n1a,71,1,1st Grade,3,17,Angry,4750,1,0
113,Female,320,8n1a,72,1,1st Grade,3,18,Angry,2671.875,1,0
113,Female,320,8n1h,73,1,1st Grade,3,19,Happy,4265.625,1,0
113,Female,320,8n1a,74,1,1st Grade,3,20,Angry,2875,1,0
113,Female,320,alln,75,1,1st Grade,3,21,Absent,4812.5,1,0
113,Female,320,8n1a,76,1,1st Grade,3,22,Angry,7437.5,1,0
113,Female,320,8n1a,77,1,1st Grade,3,23,Angry,6531.25,1,0
113,Female,320,8n1h,78,1,1st Grade,3,24,Happy,4609.375,1,0
113,Female,320,alln,79,1,1st Grade,3,25,Absent,7250,0,1
113,Female,320,alln,80,1,1st Grade,3,26,Absent,4718.75,1,0
113,Female,320,alln,81,1,1st Grade,3,27,Absent,3968.75,1,0
114,Male,380,8n1h,1,1,1st Grade,1,1,Happy,2484.375,1,0
114,Male,380,alln,2,1,1st Grade,1,2,Absent,3812.5,1,0
114,Male,380,8n1a,3,1,1st Grade,1,3,Angry,3843.75,1,0
114,Male,380,alln,4,1,1st Grade,1,4,Absent,6437.5,1,0
114,Male,380,8n1a,5,1,1st Grade,1,5,Angry,3046.875,1,0
114,Male,380,8n1a,6,1,1st Grade,1,6,Angry,6296.875,1,0
114,Male,380,8n1a,7,1,1st Grade,1,7,Angry,5171.875,1,0
114,Male,380,alln,8,1,1st Grade,1,8,Absent,8281.25,1,0
114,Male,380,alln,9,1,1st Grade,1,9,Absent,5953.125,1,0
114,Male,380,8n1h,10,1,1st Grade,1,10,Happy,7703.125,1,0
114,Male,380,8n1h,11,1,1st Grade,1,11,Happy,6437.5,1,0
114,Male,380,alln,12,1,1st Grade,1,12,Absent,7296.875,1,0
114,Male,380,8n1h,13,1,1st Grade,1,13,Happy,3875,1,0
114,Male,380,8n1a,14,1,1st Grade,1,14,Angry,6250,1,0
114,Male,380,8n1a,15,1,1st Grade,1,15,Angry,3578.125,1,0
114,Male,380,8n1a,16,1,1st Grade,1,16,Angry,2906.25,1,0
114,Male,380,8n1h,17,1,1st Grade,1,17,Happy,4484.375,1,0
114,Male,380,alln,18,1,1st Grade,1,18,Absent,4890.625,1,0
114,Male,380,8n1h,19,1,1st Grade,1,19,Happy,3734.375,0,1
114,Male,380,8n1h,20,1,1st Grade,1,20,Happy,2390.625,1,0
114,Male,380,8n1a,21,1,1st Grade,1,21,Angry,5406.25,1,0
114,Male,380,8n1h,22,1,1st Grade,1,22,Happy,4343.75,1,0
114,Male,380,alln,23,1,1st Grade,1,23,Absent,2203.125,1,0
114,Male,380,alln,24,1,1st Grade,1,24,Absent,4171.875,1,0
114,Male,380,8n1h,25,1,1st Grade,1,25,Happy,4312.5,1,0
114,Male,380,alln,26,1,1st Grade,1,26,Absent,4656.25,0,1
114,Male,380,8n1a,27,1,1st Grade,1,27,Angry,2390.625,1,0
114,Male,380,8n1a,28,1,1st Grade,2,1,Angry,3796.875,1,0
114,Male,380,alln,29,1,1st Grade,2,2,Absent,2781.25,0,1
114,Male,380,8n1a,30,1,1st Grade,2,3,Angry,2140.625,1,0
114,Male,380,8n1a,31,1,1st Grade,2,4,Angry,3515.625,1,0
114,Male,380,alln,32,1,1st Grade,2,5,Absent,2546.875,1,0
114,Male,380,8n1a,33,1,1st Grade,2,6,Angry,1890.625,1,0
114,Male,380,8n1h,34,1,1st Grade,2,7,Happy,4156.25,1,0
114,Male,380,alln,35,1,1st Grade,2,8,Absent,3984.375,0,1
114,Male,380,8n1a,36,1,1st Grade,2,9,Angry,4906.25,1,0
114,Male,380,8n1h,37,1,1st Grade,2,10,Happy,1906.25,1,0
114,Male,380,8n1h,38,1,1st Grade,2,11,Happy,3671.875,0,1
114,Male,380,alln,39,1,1st Grade,2,12,Absent,2593.75,1,0
114,Male,380,alln,40,1,1st Grade,2,13,Absent,1640.625,1,0
114,Male,380,8n1h,41,1,1st Grade,2,14,Happy,1875,1,0
114,Male,380,alln,42,1,1st Grade,2,15,Absent,2343.75,1,0
114,Male,380,alln,43,1,1st Grade,2,16,Absent,4750,1,0
114,Male,380,alln,44,1,1st Grade,2,17,Absent,1593.75,1,0
114,Male,380,8n1h,45,1,1st Grade,2,18,Happy,2718.75,1,0
114,Male,380,8n1h,46,1,1st Grade,2,19,Happy,4421.875,1,0
114,Male,380,8n1h,47,1,1st Grade,2,20,Happy,2109.375,1,0
114,Male,380,8n1a,48,1,1st Grade,2,21,Angry,3359.375,1,0
114,Male,380,8n1a,49,1,1st Grade,2,22,Angry,2312.5,1,0
114,Male,380,alln,50,1,1st Grade,2,23,Absent,3062.5,0,1
114,Male,380,8n1h,51,1,1st Grade,2,24,Happy,5375,1,0
114,Male,380,8n1h,52,1,1st Grade,2,25,Happy,3421.875,1,0
114,Male,380,8n1a,53,1,1st Grade,2,26,Angry,1453.125,1,0
114,Male,380,8n1a,54,1,1st Grade,2,27,Angry,3421.875,1,0
114,Male,380,8n1a,55,1,1st Grade,3,1,Angry,4203.125,1,0
114,Male,380,alln,56,1,1st Grade,3,2,Absent,1328.125,1,0
114,Male,380,8n1h,57,1,1st Grade,3,3,Happy,4859.375,1,0
114,Male,380,alln,58,1,1st Grade,3,4,Absent,3156.25,1,0
114,Male,380,alln,59,1,1st Grade,3,5,Absent,3625,1,0
114,Male,380,alln,60,1,1st Grade,3,6,Absent,3437.5,1,0
114,Male,380,8n1a,61,1,1st Grade,3,7,Angry,2250,1,0
114,Male,380,8n1a,62,1,1st Grade,3,8,Angry,3921.875,1,0
114,Male,380,8n1h,63,1,1st Grade,3,9,Happy,1687.5,1,0
114,Male,380,8n1h,64,1,1st Grade,3,10,Happy,3906.25,0,1
114,Male,380,8n1a,65,1,1st Grade,3,11,Angry,3796.875,1,0
114,Male,380,alln,66,1,1st Grade,3,12,Absent,2187.5,1,0
114,Male,380,8n1h,67,1,1st Grade,3,13,Happy,4015.625,1,0
114,Male,380,8n1h,68,1,1st Grade,3,14,Happy,2046.875,1,0
114,Male,380,8n1a,69,1,1st Grade,3,15,Angry,2109.375,1,0
114,Male,380,8n1h,70,1,1st Grade,3,16,Happy,2828.125,1,0
114,Male,380,8n1h,71,1,1st Grade,3,17,Happy,3796.875,1,0
114,Male,380,8n1h,72,1,1st Grade,3,18,Happy,4046.875,1,0
114,Male,380,alln,73,1,1st Grade,3,19,Absent,2875,1,0
114,Male,380,8n1h,74,1,1st Grade,3,20,Happy,3656.25,1,0
114,Male,380,alln,75,1,1st Grade,3,21,Absent,4250,1,0
114,Male,380,8n1a,76,1,1st Grade,3,22,Angry,1640.625,1,0
114,Male,380,alln,77,1,1st Grade,3,23,Absent,2656.25,1,0
114,Male,380,8n1a,78,1,1st Grade,3,24,Angry,4375,1,0
114,Male,380,alln,79,1,1st Grade,3,25,Absent,3234.375,1,0
114,Male,380,8n1a,80,1,1st Grade,3,26,Angry,2718.75,1,0
114,Male,380,8n1a,81,1,1st Grade,3,27,Angry,3906.25,1,0
115,Male,363,8n1a,1,1,1st Grade,1,1,Angry,2437.5,1,0
115,Male,363,alln,2,1,1st Grade,1,2,Absent,1718.75,1,0
115,Male,363,8n1h,3,1,1st Grade,1,3,Happy,3593.75,1,0
115,Male,363,8n1a,4,1,1st Grade,1,4,Angry,3562.5,1,0
115,Male,363,alln,5,1,1st Grade,1,5,Absent,3593.75,1,0
115,Male,363,alln,6,1,1st Grade,1,6,Absent,3484.375,1,0
115,Male,363,8n1h,7,1,1st Grade,1,7,Happy,,1,0
115,Male,363,8n1h,8,1,1st Grade,1,8,Happy,2093.75,1,0
115,Male,363,8n1a,9,1,1st Grade,1,9,Angry,2312.5,1,0
115,Male,363,8n1a,10,1,1st Grade,1,10,Angry,1687.5,1,0
115,Male,363,alln,11,1,1st Grade,1,11,Absent,1593.75,1,0
115,Male,363,8n1h,12,1,1st Grade,1,12,Happy,4453.125,1,0
115,Male,363,8n1h,13,1,1st Grade,1,13,Happy,3796.875,1,0
115,Male,363,alln,14,1,1st Grade,1,14,Absent,1937.5,1,0
115,Male,363,alln,15,1,1st Grade,1,15,Absent,1859.375,1,0
115,Male,363,alln,16,1,1st Grade,1,16,Absent,1562.5,1,0
115,Male,363,8n1a,17,1,1st Grade,1,17,Angry,1421.875,1,0
115,Male,363,8n1h,18,1,1st Grade,1,18,Happy,2234.375,1,0
115,Male,363,8n1a,19,1,1st Grade,1,19,Angry,2000,1,0
115,Male,363,8n1h,20,1,1st Grade,1,20,Happy,5015.625,1,0
115,Male,363,8n1a,21,1,1st Grade,1,21,Angry,4171.875,1,0
115,Male,363,8n1a,22,1,1st Grade,1,22,Angry,2046.875,1,0
115,Male,363,8n1a,23,1,1st Grade,1,23,Angry,4562.5,1,0
115,Male,363,8n1h,24,1,1st Grade,1,24,Happy,3968.75,1,0
115,Male,363,alln,25,1,1st Grade,1,25,Absent,3578.125,1,0
115,Male,363,8n1h,26,1,1st Grade,1,26,Happy,3953.125,1,0
115,Male,363,alln,27,1,1st Grade,1,27,Absent,4078.125,1,0
115,Male,363,8n1h,28,1,1st Grade,2,1,Happy,1453.125,1,0
115,Male,363,8n1a,29,1,1st Grade,2,2,Angry,4250,1,0
115,Male,363,alln,30,1,1st Grade,2,3,Absent,3187.5,1,0
115,Male,363,8n1h,31,1,1st Grade,2,4,Happy,3218.75,1,0
115,Male,363,8n1a,32,1,1st Grade,2,5,Angry,4234.375,1,0
115,Male,363,alln,33,1,1st Grade,2,6,Absent,1328.125,1,0
115,Male,363,8n1h,34,1,1st Grade,2,7,Happy,1796.875,1,0
115,Male,363,8n1a,35,1,1st Grade,2,8,Angry,1984.375,1,0
115,Male,363,8n1h,36,1,1st Grade,2,9,Happy,2640.625,1,0
115,Male,363,8n1a,37,1,1st Grade,2,10,Angry,1328.125,1,0
115,Male,363,8n1h,38,1,1st Grade,2,11,Happy,3515.625,1,0
115,Male,363,8n1h,39,1,1st Grade,2,12,Happy,3281.25,1,0
115,Male,363,8n1a,40,1,1st Grade,2,13,Angry,3343.75,1,0
115,Male,363,8n1a,41,1,1st Grade,2,14,Angry,2281.25,1,0
115,Male,363,alln,42,1,1st Grade,2,15,Absent,4093.75,1,0
115,Male,363,alln,43,1,1st Grade,2,16,Absent,1921.875,1,0
115,Male,363,8n1h,44,1,1st Grade,2,17,Happy,2234.375,1,0
115,Male,363,alln,45,1,1st Grade,2,18,Absent,3531.25,1,0
115,Male,363,8n1a,46,1,1st Grade,2,19,Angry,3937.5,1,0
115,Male,363,8n1h,47,1,1st Grade,2,20,Happy,3640.625,1,0
115,Male,363,alln,48,1,1st Grade,2,21,Absent,3531.25,1,0
115,Male,363,8n1h,49,1,1st Grade,2,22,Happy,3375,1,0
115,Male,363,8n1a,50,1,1st Grade,2,23,Angry,4953.125,1,0
115,Male,363,alln,51,1,1st Grade,2,24,Absent,2484.375,1,0
115,Male,363,alln,52,1,1st Grade,2,25,Absent,2656.25,1,0
115,Male,363,8n1a,53,1,1st Grade,2,26,Angry,1890.625,1,0
115,Male,363,alln,54,1,1st Grade,2,27,Absent,2953.125,1,0
115,Male,363,alln,55,1,1st Grade,3,1,Absent,3890.625,1,0
115,Male,363,alln,56,1,1st Grade,3,2,Absent,5640.625,1,0
115,Male,363,8n1a,57,1,1st Grade,3,3,Angry,2890.625,1,0
115,Male,363,8n1h,58,1,1st Grade,3,4,Happy,4109.375,1,0
115,Male,363,alln,59,1,1st Grade,3,5,Absent,2328.125,1,0
115,Male,363,8n1h,60,1,1st Grade,3,6,Happy,4484.375,1,0
115,Male,363,alln,61,1,1st Grade,3,7,Absent,6234.375,1,0
115,Male,363,8n1a,62,1,1st Grade,3,8,Angry,7093.75,1,0
115,Male,363,8n1a,63,1,1st Grade,3,9,Angry,3984.375,1,0
115,Male,363,8n1a,64,1,1st Grade,3,10,Angry,4421.875,1,0
115,Male,363,alln,65,1,1st Grade,3,11,Absent,2546.875,1,0
115,Male,363,8n1a,66,1,1st Grade,3,12,Angry,4421.875,1,0
115,Male,363,8n1a,67,1,1st Grade,3,13,Angry,2484.375,1,0
115,Male,363,8n1a,68,1,1st Grade,3,14,Angry,6609.375,1,0
115,Male,363,8n1a,69,1,1st Grade,3,15,Angry,3250,1,0
115,Male,363,8n1a,70,1,1st Grade,3,16,Angry,3093.75,1,0
115,Male,363,8n1h,71,1,1st Grade,3,17,Happy,2937.5,1,0
115,Male,363,8n1h,72,1,1st Grade,3,18,Happy,5093.75,0,1
115,Male,363,alln,73,1,1st Grade,3,19,Absent,2640.625,1,0
115,Male,363,alln,74,1,1st Grade,3,20,Absent,2906.25,1,0
115,Male,363,8n1h,75,1,1st Grade,3,21,Happy,4875,1,0
115,Male,363,8n1h,76,1,1st Grade,3,22,Happy,3531.25,1,0
115,Male,363,alln,77,1,1st Grade,3,23,Absent,2515.625,1,0
115,Male,363,8n1h,78,1,1st Grade,3,24,Happy,3625,1,0
115,Male,363,8n1h,79,1,1st Grade,3,25,Happy,3671.875,1,0
115,Male,363,8n1h,80,1,1st Grade,3,26,Happy,3765.625,1,0
115,Male,363,alln,81,1,1st Grade,3,27,Absent,5156.25,1,0
116,Male,337,8n1h,1,1,1st Grade,1,1,Happy,4000,1,0
116,Male,337,8n1h,2,1,1st Grade,1,2,Happy,1984.375,1,0
116,Male,337,8n1a,3,1,1st Grade,1,3,Angry,2203.125,1,0
116,Male,337,8n1h,4,1,1st Grade,1,4,Happy,2546.875,1,0
116,Male,337,8n1a,5,1,1st Grade,1,5,Angry,3562.5,1,0
116,Male,337,alln,6,1,1st Grade,1,6,Absent,4218.75,1,0
116,Male,337,8n1h,7,1,1st Grade,1,7,Happy,4390.625,1,0
116,Male,337,alln,8,1,1st Grade,1,8,Absent,3843.75,0,1
116,Male,337,alln,9,1,1st Grade,1,9,Absent,3375,0,1
116,Male,337,alln,10,1,1st Grade,1,10,Absent,2609.375,0,1
116,Male,337,8n1a,11,1,1st Grade,1,11,Angry,3421.875,1,0
116,Male,337,alln,12,1,1st Grade,1,12,Absent,7375,0,1
116,Male,337,8n1h,13,1,1st Grade,1,13,Happy,2437.5,1,0
116,Male,337,8n1a,14,1,1st Grade,1,14,Angry,4062.5,1,0
116,Male,337,8n1a,15,1,1st Grade,1,15,Angry,4343.75,1,0
116,Male,337,8n1h,16,1,1st Grade,1,16,Happy,2218.75,1,0
116,Male,337,8n1h,17,1,1st Grade,1,17,Happy,2031.25,1,0
116,Male,337,alln,18,1,1st Grade,1,18,Absent,3250,0,1
116,Male,337,alln,19,1,1st Grade,1,19,Absent,4687.5,0,1
116,Male,337,8n1a,20,1,1st Grade,1,20,Angry,4093.75,1,0
116,Male,337,8n1h,21,1,1st Grade,1,21,Happy,2734.375,1,0
116,Male,337,alln,22,1,1st Grade,1,22,Absent,4765.625,1,0
116,Male,337,8n1a,23,1,1st Grade,1,23,Angry,2671.875,1,0
116,Male,337,8n1a,24,1,1st Grade,1,24,Angry,2671.875,1,0
116,Male,337,8n1h,25,1,1st Grade,1,25,Happy,2281.25,1,0
116,Male,337,8n1a,26,1,1st Grade,1,26,Angry,1875,1,0
116,Male,337,alln,27,1,1st Grade,1,27,Absent,2718.75,1,0
116,Male,337,8n1a,28,1,1st Grade,2,1,Angry,2609.375,1,0
116,Male,337,8n1h,29,1,1st Grade,2,2,Happy,2031.25,1,0
116,Male,337,8n1h,30,1,1st Grade,2,3,Happy,2062.5,1,0
116,Male,337,alln,31,1,1st Grade,2,4,Absent,2359.375,1,0
116,Male,337,alln,32,1,1st Grade,2,5,Absent,4515.625,1,0
116,Male,337,alln,33,1,1st Grade,2,6,Absent,3062.5,1,0
116,Male,337,8n1a,34,1,1st Grade,2,7,Angry,2250,1,0
116,Male,337,8n1h,35,1,1st Grade,2,8,Happy,3437.5,1,0
116,Male,337,8n1a,36,1,1st Grade,2,9,Angry,3343.75,1,0
116,Male,337,8n1a,37,1,1st Grade,2,10,Angry,1515.625,1,0
116,Male,337,alln,38,1,1st Grade,2,11,Absent,2234.375,1,0
116,Male,337,8n1h,39,1,1st Grade,2,12,Happy,6890.625,1,0
116,Male,337,8n1h,40,1,1st Grade,2,13,Happy,2421.875,1,0
116,Male,337,alln,41,1,1st Grade,2,14,Absent,2359.375,1,0
116,Male,337,8n1a,42,1,1st Grade,2,15,Angry,3125,1,0
116,Male,337,8n1h,43,1,1st Grade,2,16,Happy,4843.75,1,0
116,Male,337,8n1a,44,1,1st Grade,2,17,Angry,4265.625,1,0
116,Male,337,alln,45,1,1st Grade,2,18,Absent,3687.5,1,0
116,Male,337,8n1h,46,1,1st Grade,2,19,Happy,4781.25,1,0
116,Male,337,8n1h,47,1,1st Grade,2,20,Happy,3343.75,1,0
116,Male,337,alln,48,1,1st Grade,2,21,Absent,2750,1,0
116,Male,337,alln,49,1,1st Grade,2,22,Absent,2296.875,1,0
116,Male,337,8n1a,50,1,1st Grade,2,23,Angry,1609.375,1,0
116,Male,337,alln,51,1,1st Grade,2,24,Absent,3718.75,1,0
116,Male,337,8n1a,52,1,1st Grade,2,25,Angry,4593.75,1,0
116,Male,337,8n1h,53,1,1st Grade,2,26,Happy,4437.5,1,0
116,Male,337,8n1a,54,1,1st Grade,2,27,Angry,2000,1,0
116,Male,337,8n1h,55,1,1st Grade,3,1,Happy,3640.625,1,0
116,Male,337,8n1h,56,1,1st Grade,3,2,Happy,5937.5,1,0
116,Male,337,8n1a,57,1,1st Grade,3,3,Angry,4046.875,1,0
116,Male,337,8n1h,58,1,1st Grade,3,4,Happy,2468.75,1,0
116,Male,337,alln,59,1,1st Grade,3,5,Absent,1953.125,1,0
116,Male,337,8n1h,60,1,1st Grade,3,6,Happy,2890.625,1,0
116,Male,337,8n1a,61,1,1st Grade,3,7,Angry,4843.75,1,0
116,Male,337,8n1h,62,1,1st Grade,3,8,Happy,4546.875,1,0
116,Male,337,alln,63,1,1st Grade,3,9,Absent,2562.5,0,1
116,Male,337,8n1a,64,1,1st Grade,3,10,Angry,1609.375,1,0
116,Male,337,8n1h,65,1,1st Grade,3,11,Happy,7390.625,1,0
116,Male,337,8n1a,66,1,1st Grade,3,12,Angry,,1,0
116,Male,337,8n1a,67,1,1st Grade,3,13,Angry,2609.375,1,0
116,Male,337,alln,68,1,1st Grade,3,14,Absent,2390.625,1,0
116,Male,337,alln,69,1,1st Grade,3,15,Absent,4015.625,1,0
116,Male,337,alln,70,1,1st Grade,3,16,Absent,4406.25,1,0
116,Male,337,alln,71,1,1st Grade,3,17,Absent,5890.625,1,0
116,Male,337,alln,72,1,1st Grade,3,18,Absent,3062.5,1,0
116,Male,337,8n1h,73,1,1st Grade,3,19,Happy,2921.875,0,1
116,Male,337,8n1a,74,1,1st Grade,3,20,Angry,2937.5,1,0
116,Male,337,8n1a,75,1,1st Grade,3,21,Angry,1750,1,0
116,Male,337,8n1h,76,1,1st Grade,3,22,Happy,5781.25,1,0
116,Male,337,8n1h,77,1,1st Grade,3,23,Happy,3796.875,1,0
116,Male,337,alln,78,1,1st Grade,3,24,Absent,2796.875,0,1
116,Male,337,8n1a,79,1,1st Grade,3,25,Angry,2171.875,1,0
116,Male,337,alln,80,1,1st Grade,3,26,Absent,3156.25,1,0
116,Male,337,8n1a,81,1,1st Grade,3,27,Angry,1593.75,1,0
117,Male,347,8n1a,1,1,1st Grade,1,1,Angry,3046.875,1,0
117,Male,347,alln,2,1,1st Grade,1,2,Absent,4156.25,1,0
117,Male,347,alln,3,1,1st Grade,1,3,Absent,4390.625,1,0
117,Male,347,8n1a,4,1,1st Grade,1,4,Angry,3968.75,0,1
117,Male,347,alln,5,1,1st Grade,1,5,Absent,4515.625,1,0
117,Male,347,8n1h,6,1,1st Grade,1,6,Happy,2421.875,1,0
117,Male,347,8n1h,7,1,1st Grade,1,7,Happy,3843.75,1,0
117,Male,347,8n1a,8,1,1st Grade,1,8,Angry,3640.625,1,0
117,Male,347,8n1h,9,1,1st Grade,1,9,Happy,3578.125,1,0
117,Male,347,alln,10,1,1st Grade,1,10,Absent,3859.375,1,0
117,Male,347,8n1h,11,1,1st Grade,1,11,Happy,3390.625,1,0
117,Male,347,8n1h,12,1,1st Grade,1,12,Happy,2343.75,1,0
117,Male,347,8n1a,13,1,1st Grade,1,13,Angry,4015.625,1,0
117,Male,347,8n1a,14,1,1st Grade,1,14,Angry,4546.875,1,0
117,Male,347,8n1h,15,1,1st Grade,1,15,Happy,4187.5,1,0
117,Male,347,alln,16,1,1st Grade,1,16,Absent,2156.25,1,0
117,Male,347,8n1a,17,1,1st Grade,1,17,Angry,2093.75,1,0
117,Male,347,8n1a,18,1,1st Grade,1,18,Angry,2515.625,1,0
117,Male,347,8n1h,19,1,1st Grade,1,19,Happy,4500,1,0
117,Male,347,8n1h,20,1,1st Grade,1,20,Happy,4312.5,1,0
117,Male,347,8n1a,21,1,1st Grade,1,21,Angry,1890.625,1,0
117,Male,347,8n1a,22,1,1st Grade,1,22,Angry,2312.5,1,0
117,Male,347,alln,23,1,1st Grade,1,23,Absent,2000,1,0
117,Male,347,alln,24,1,1st Grade,1,24,Absent,2515.625,1,0
117,Male,347,8n1h,25,1,1st Grade,1,25,Happy,5062.5,0,1
117,Male,347,alln,26,1,1st Grade,1,26,Absent,2812.5,1,0
117,Male,347,alln,27,1,1st Grade,1,27,Absent,3593.75,1,0
117,Male,347,alln,28,1,1st Grade,2,1,Absent,3281.25,1,0
117,Male,347,alln,29,1,1st Grade,2,2,Absent,3578.125,1,0
117,Male,347,8n1h,30,1,1st Grade,2,3,Happy,2109.375,0,1
117,Male,347,8n1h,31,1,1st Grade,2,4,Happy,2906.25,1,0
117,Male,347,8n1h,32,1,1st Grade,2,5,Happy,3750,1,0
117,Male,347,8n1a,33,1,1st Grade,2,6,Angry,2593.75,1,0
117,Male,347,8n1a,34,1,1st Grade,2,7,Angry,2218.75,1,0
117,Male,347,8n1a,35,1,1st Grade,2,8,Angry,3953.125,1,0
117,Male,347,alln,36,1,1st Grade,2,9,Absent,4078.125,1,0
117,Male,347,8n1a,37,1,1st Grade,2,10,Angry,4625,1,0
117,Male,347,8n1h,38,1,1st Grade,2,11,Happy,4250,1,0
117,Male,347,8n1h,39,1,1st Grade,2,12,Happy,2750,1,0
117,Male,347,8n1h,40,1,1st Grade,2,13,Happy,4203.125,1,0
117,Male,347,8n1a,41,1,1st Grade,2,14,Angry,3828.125,1,0
117,Male,347,8n1a,42,1,1st Grade,2,15,Angry,4828.125,1,0
117,Male,347,8n1a,43,1,1st Grade,2,16,Angry,3312.5,1,0
117,Male,347,8n1a,44,1,1st Grade,2,17,Angry,2265.625,1,0
117,Male,347,alln,45,1,1st Grade,2,18,Absent,2687.5,1,0
117,Male,347,8n1h,46,1,1st Grade,2,19,Happy,1875,1,0
117,Male,347,8n1a,47,1,1st Grade,2,20,Angry,4484.375,1,0
117,Male,347,alln,48,1,1st Grade,2,21,Absent,3640.625,1,0
117,Male,347,alln,49,1,1st Grade,2,22,Absent,3031.25,1,0
117,Male,347,8n1h,50,1,1st Grade,2,23,Happy,2921.875,0,1
117,Male,347,alln,51,1,1st Grade,2,24,Absent,3390.625,1,0
117,Male,347,alln,52,1,1st Grade,2,25,Absent,3625,1,0
117,Male,347,8n1h,53,1,1st Grade,2,26,Happy,2828.125,1,0
117,Male,347,alln,54,1,1st Grade,2,27,Absent,4125,1,0
117,Male,347,alln,55,1,1st Grade,3,1,Absent,2937.5,1,0
117,Male,347,8n1a,56,1,1st Grade,3,2,Angry,2640.625,1,0
117,Male,347,8n1h,57,1,1st Grade,3,3,Happy,3171.875,1,0
117,Male,347,8n1a,58,1,1st Grade,3,4,Angry,3046.875,1,0
117,Male,347,8n1a,59,1,1st Grade,3,5,Angry,2843.75,1,0
117,Male,347,8n1a,60,1,1st Grade,3,6,Angry,2968.75,1,0
117,Male,347,8n1h,61,1,1st Grade,3,7,Happy,4375,1,0
117,Male,347,8n1h,62,1,1st Grade,3,8,Happy,2906.25,1,0
117,Male,347,8n1h,63,1,1st Grade,3,9,Happy,3750,1,0
117,Male,347,8n1h,64,1,1st Grade,3,10,Happy,2843.75,1,0
117,Male,347,8n1a,65,1,1st Grade,3,11,Angry,2531.25,1,0
117,Male,347,8n1h,66,1,1st Grade,3,12,Happy,3781.25,1,0
117,Male,347,8n1a,67,1,1st Grade,3,13,Angry,3359.375,1,0
117,Male,347,8n1a,68,1,1st Grade,3,14,Angry,2609.375,1,0
117,Male,347,8n1a,69,1,1st Grade,3,15,Angry,2593.75,1,0
117,Male,347,alln,70,1,1st Grade,3,16,Absent,2375,1,0
117,Male,347,alln,71,1,1st Grade,3,17,Absent,2625,1,0
117,Male,347,8n1h,72,1,1st Grade,3,18,Happy,3281.25,1,0
117,Male,347,alln,73,1,1st Grade,3,19,Absent,2828.125,1,0
117,Male,347,8n1h,74,1,1st Grade,3,20,Happy,2187.5,1,0
117,Male,347,alln,75,1,1st Grade,3,21,Absent,3437.5,1,0
117,Male,347,8n1a,76,1,1st Grade,3,22,Angry,2781.25,1,0
117,Male,347,8n1h,77,1,1st Grade,3,23,Happy,1906.25,1,0
117,Male,347,alln,78,1,1st Grade,3,24,Absent,3312.5,1,0
117,Male,347,alln,79,1,1st Grade,3,25,Absent,3140.625,1,0
117,Male,347,alln,80,1,1st Grade,3,26,Absent,3640.625,1,0
117,Male,347,alln,81,1,1st Grade,3,27,Absent,4078.125,1,0
118,Male,347,8n1h,1,1,1st Grade,1,1,Happy,4093.75,1,0
118,Male,347,8n1a,2,1,1st Grade,1,2,Angry,2656.25,1,0
118,Male,347,alln,3,1,1st Grade,1,3,Absent,3375,0,1
118,Male,347,alln,4,1,1st Grade,1,4,Absent,3484.375,0,1
118,Male,347,8n1a,5,1,1st Grade,1,5,Angry,3031.25,1,0
118,Male,347,alln,6,1,1st Grade,1,6,Absent,2375,1,0
118,Male,347,alln,7,1,1st Grade,1,7,Absent,1921.875,1,0
118,Male,347,8n1h,8,1,1st Grade,1,8,Happy,2093.75,1,0
118,Male,347,8n1h,9,1,1st Grade,1,9,Happy,3921.875,1,0
118,Male,347,alln,10,1,1st Grade,1,10,Absent,3046.875,1,0
118,Male,347,8n1h,11,1,1st Grade,1,11,Happy,3484.375,1,0
118,Male,347,8n1a,12,1,1st Grade,1,12,Angry,3531.25,1,0
118,Male,347,8n1h,13,1,1st Grade,1,13,Happy,2656.25,1,0
118,Male,347,8n1a,14,1,1st Grade,1,14,Angry,2328.125,1,0
118,Male,347,8n1h,15,1,1st Grade,1,15,Happy,3390.625,1,0
118,Male,347,8n1a,16,1,1st Grade,1,16,Angry,2593.75,1,0
118,Male,347,alln,17,1,1st Grade,1,17,Absent,3312.5,1,0
118,Male,347,8n1a,18,1,1st Grade,1,18,Angry,3578.125,1,0
118,Male,347,alln,19,1,1st Grade,1,19,Absent,3296.875,1,0
118,Male,347,8n1h,20,1,1st Grade,1,20,Happy,1843.75,1,0
118,Male,347,alln,21,1,1st Grade,1,21,Absent,1968.75,1,0
118,Male,347,8n1a,22,1,1st Grade,1,22,Angry,3718.75,1,0
118,Male,347,8n1h,23,1,1st Grade,1,23,Happy,2578.125,1,0
118,Male,347,8n1a,24,1,1st Grade,1,24,Angry,2843.75,1,0
118,Male,347,8n1a,25,1,1st Grade,1,25,Angry,2718.75,1,0
118,Male,347,alln,26,1,1st Grade,1,26,Absent,2015.625,1,0
118,Male,347,8n1h,27,1,1st Grade,1,27,Happy,3187.5,1,0
118,Male,347,alln,28,1,1st Grade,2,1,Absent,6796.875,1,0
118,Male,347,8n1a,29,1,1st Grade,2,2,Angry,5281.25,1,0
118,Male,347,alln,30,1,1st Grade,2,3,Absent,13109.375,1,0
118,Male,347,8n1a,31,1,1st Grade,2,4,Angry,10546.875,1,0
118,Male,347,8n1a,32,1,1st Grade,2,5,Angry,7984.375,1,0
118,Male,347,8n1a,33,1,1st Grade,2,6,Angry,13281.25,1,0
118,Male,347,8n1h,34,1,1st Grade,2,7,Happy,6671.875,1,0
118,Male,347,alln,35,1,1st Grade,2,8,Absent,7093.75,1,0
118,Male,347,8n1h,36,1,1st Grade,2,9,Happy,11437.5,1,0
118,Male,347,alln,37,1,1st Grade,2,10,Absent,5046.875,1,0
118,Male,347,8n1a,38,1,1st Grade,2,11,Angry,4562.5,1,0
118,Male,347,alln,39,1,1st Grade,2,12,Absent,4703.125,1,0
118,Male,347,8n1a,40,1,1st Grade,2,13,Angry,6078.125,1,0
118,Male,347,alln,41,1,1st Grade,2,14,Absent,7625,1,0
118,Male,347,8n1h,42,1,1st Grade,2,15,Happy,5937.5,1,0
118,Male,347,8n1h,43,1,1st Grade,2,16,Happy,8046.875,1,0
118,Male,347,alln,44,1,1st Grade,2,17,Absent,10796.875,1,0
118,Male,347,8n1h,45,1,1st Grade,2,18,Happy,3750,1,0
118,Male,347,8n1h,46,1,1st Grade,2,19,Happy,6171.875,1,0
118,Male,347,8n1a,47,1,1st Grade,2,20,Angry,4312.5,1,0
118,Male,347,8n1h,48,1,1st Grade,2,21,Happy,8281.25,1,0
118,Male,347,8n1a,49,1,1st Grade,2,22,Angry,6453.125,1,0
118,Male,347,8n1h,50,1,1st Grade,2,23,Happy,6640.625,1,0
118,Male,347,8n1a,51,1,1st Grade,2,24,Angry,,1,0
118,Male,347,alln,52,1,1st Grade,2,25,Absent,7812.5,1,0
118,Male,347,8n1h,53,1,1st Grade,2,26,Happy,6531.25,1,0
118,Male,347,alln,54,1,1st Grade,2,27,Absent,4796.875,1,0
118,Male,347,alln,55,1,1st Grade,3,1,Absent,4796.875,1,0
118,Male,347,8n1h,56,1,1st Grade,3,2,Happy,5484.375,1,0
118,Male,347,8n1h,57,1,1st Grade,3,3,Happy,4000,1,0
118,Male,347,alln,58,1,1st Grade,3,4,Absent,4390.625,0,1
118,Male,347,8n1a,59,1,1st Grade,3,5,Angry,5156.25,1,0
118,Male,347,8n1h,60,1,1st Grade,3,6,Happy,3312.5,1,0
118,Male,347,8n1h,61,1,1st Grade,3,7,Happy,2734.375,1,0
118,Male,347,8n1h,62,1,1st Grade,3,8,Happy,5953.125,1,0
118,Male,347,8n1h,63,1,1st Grade,3,9,Happy,5187.5,1,0
118,Male,347,8n1h,64,1,1st Grade,3,10,Happy,5625,1,0
118,Male,347,alln,65,1,1st Grade,3,11,Absent,5484.375,1,0
118,Male,347,8n1a,66,1,1st Grade,3,12,Angry,6468.75,1,0
118,Male,347,alln,67,1,1st Grade,3,13,Absent,4375,1,0
118,Male,347,8n1a,68,1,1st Grade,3,14,Angry,3187.5,1,0
118,Male,347,8n1a,69,1,1st Grade,3,15,Angry,5718.75,1,0
118,Male,347,8n1h,70,1,1st Grade,3,16,Happy,4453.125,1,0
118,Male,347,alln,71,1,1st Grade,3,17,Absent,9031.25,1,0
118,Male,347,alln,72,1,1st Grade,3,18,Absent,4453.125,1,0
118,Male,347,8n1a,73,1,1st Grade,3,19,Angry,5734.375,1,0
118,Male,347,8n1a,74,1,1st Grade,3,20,Angry,9078.125,1,0
118,Male,347,alln,75,1,1st Grade,3,21,Absent,6890.625,1,0
118,Male,347,8n1a,76,1,1st Grade,3,22,Angry,6343.75,1,0
118,Male,347,alln,77,1,1st Grade,3,23,Absent,3109.375,1,0
118,Male,347,8n1a,78,1,1st Grade,3,24,Angry,4859.375,1,0
118,Male,347,8n1a,79,1,1st Grade,3,25,Angry,5578.125,1,0
118,Male,347,8n1h,80,1,1st Grade,3,26,Happy,5218.75,1,0
118,Male,347,alln,81,1,1st Grade,3,27,Absent,6906.25,1,0
119,Female,353,8n1h,1,1,1st Grade,1,1,Happy,4078.125,0,1
119,Female,353,alln,2,1,1st Grade,1,2,Absent,5453.125,0,1
119,Female,353,alln,3,1,1st Grade,1,3,Absent,6000,0,1
119,Female,353,8n1a,4,1,1st Grade,1,4,Angry,6484.375,1,0
119,Female,353,8n1h,5,1,1st Grade,1,5,Happy,4625,1,0
119,Female,353,8n1a,6,1,1st Grade,1,6,Angry,4140.625,1,0
119,Female,353,8n1h,7,1,1st Grade,1,7,Happy,9500,1,0
119,Female,353,alln,8,1,1st Grade,1,8,Absent,4156.25,0,1
119,Female,353,8n1h,9,1,1st Grade,1,9,Happy,8078.125,1,0
119,Female,353,8n1h,10,1,1st Grade,1,10,Happy,7546.875,1,0
119,Female,353,alln,11,1,1st Grade,1,11,Absent,10062.5,0,1
119,Female,353,8n1a,12,1,1st Grade,1,12,Angry,3562.5,1,0
119,Female,353,alln,13,1,1st Grade,1,13,Absent,10296.875,1,0
119,Female,353,alln,14,1,1st Grade,1,14,Absent,8000,0,1
119,Female,353,8n1a,15,1,1st Grade,1,15,Angry,4484.375,1,0
119,Female,353,8n1a,16,1,1st Grade,1,16,Angry,3671.875,1,0
119,Female,353,8n1h,17,1,1st Grade,1,17,Happy,6859.375,1,0
119,Female,353,8n1h,18,1,1st Grade,1,18,Happy,4531.25,1,0
119,Female,353,alln,19,1,1st Grade,1,19,Absent,7406.25,1,0
119,Female,353,8n1a,20,1,1st Grade,1,20,Angry,4437.5,1,0
119,Female,353,alln,21,1,1st Grade,1,21,Absent,8656.25,0,1
119,Female,353,8n1h,22,1,1st Grade,1,22,Happy,6062.5,1,0
119,Female,353,8n1a,23,1,1st Grade,1,23,Angry,5390.625,1,0
119,Female,353,8n1a,24,1,1st Grade,1,24,Angry,6453.125,1,0
119,Female,353,alln,25,1,1st Grade,1,25,Absent,13109.375,1,0
119,Female,353,8n1h,26,1,1st Grade,1,26,Happy,6203.125,1,0
119,Female,353,8n1a,27,1,1st Grade,1,27,Angry,,1,0
119,Female,353,alln,28,1,1st Grade,2,1,Absent,5687.5,0,1
119,Female,353,8n1h,29,1,1st Grade,2,2,Happy,5031.25,1,0
119,Female,353,alln,30,1,1st Grade,2,3,Absent,4796.875,0,1
119,Female,353,8n1h,31,1,1st Grade,2,4,Happy,3156.25,1,0
119,Female,353,8n1a,32,1,1st Grade,2,5,Angry,5687.5,1,0
119,Female,353,8n1a,33,1,1st Grade,2,6,Angry,,1,0
119,Female,353,8n1a,34,1,1st Grade,2,7,Angry,4500,1,0
119,Female,353,8n1a,35,1,1st Grade,2,8,Angry,3734.375,1,0
119,Female,353,8n1h,36,1,1st Grade,2,9,Happy,3859.375,1,0
119,Female,353,8n1h,37,1,1st Grade,2,10,Happy,4890.625,1,0
119,Female,353,alln,38,1,1st Grade,2,11,Absent,5031.25,1,0
119,Female,353,8n1h,39,1,1st Grade,2,12,Happy,5906.25,1,0
119,Female,353,8n1a,40,1,1st Grade,2,13,Angry,4062.5,1,0
119,Female,353,alln,41,1,1st Grade,2,14,Absent,3671.875,1,0
119,Female,353,alln,42,1,1st Grade,2,15,Absent,4687.5,0,1
119,Female,353,8n1h,43,1,1st Grade,2,16,Happy,5078.125,1,0
119,Female,353,alln,44,1,1st Grade,2,17,Absent,6140.625,1,0
119,Female,353,8n1a,45,1,1st Grade,2,18,Angry,3609.375,1,0
119,Female,353,8n1h,46,1,1st Grade,2,19,Happy,5734.375,1,0
119,Female,353,8n1a,47,1,1st Grade,2,20,Angry,6609.375,1,0
119,Female,353,alln,48,1,1st Grade,2,21,Absent,3453.125,1,0
119,Female,353,alln,49,1,1st Grade,2,22,Absent,3156.25,1,0
119,Female,353,8n1a,50,1,1st Grade,2,23,Angry,7734.375,1,0
119,Female,353,8n1h,51,1,1st Grade,2,24,Happy,5140.625,1,0
119,Female,353,8n1a,52,1,1st Grade,2,25,Angry,3687.5,1,0
119,Female,353,8n1h,53,1,1st Grade,2,26,Happy,7640.625,1,0
119,Female,353,alln,54,1,1st Grade,2,27,Absent,8140.625,1,0
119,Female,353,alln,55,1,1st Grade,3,1,Absent,5234.375,1,0
119,Female,353,8n1h,56,1,1st Grade,3,2,Happy,4937.5,1,0
119,Female,353,8n1a,57,1,1st Grade,3,3,Angry,7406.25,1,0
119,Female,353,8n1a,58,1,1st Grade,3,4,Angry,3687.5,1,0
119,Female,353,alln,59,1,1st Grade,3,5,Absent,4484.375,0,1
119,Female,353,8n1h,60,1,1st Grade,3,6,Happy,4062.5,1,0
119,Female,353,alln,61,1,1st Grade,3,7,Absent,2921.875,0,1
119,Female,353,alln,62,1,1st Grade,3,8,Absent,4390.625,1,0
119,Female,353,8n1a,63,1,1st Grade,3,9,Angry,3234.375,0,1
119,Female,353,8n1h,64,1,1st Grade,3,10,Happy,3546.875,1,0
119,Female,353,8n1h,65,1,1st Grade,3,11,Happy,3546.875,1,0
119,Female,353,alln,66,1,1st Grade,3,12,Absent,2531.25,1,0
119,Female,353,8n1a,67,1,1st Grade,3,13,Angry,7921.875,1,0
119,Female,353,8n1h,68,1,1st Grade,3,14,Happy,3000,1,0
119,Female,353,8n1h,69,1,1st Grade,3,15,Happy,4078.125,1,0
119,Female,353,alln,70,1,1st Grade,3,16,Absent,5765.625,1,0
119,Female,353,8n1a,71,1,1st Grade,3,17,Angry,2406.25,1,0
119,Female,353,8n1a,72,1,1st Grade,3,18,Angry,3406.25,1,0
119,Female,353,8n1a,73,1,1st Grade,3,19,Angry,3718.75,1,0
119,Female,353,8n1a,74,1,1st Grade,3,20,Angry,6984.375,1,0
119,Female,353,8n1h,75,1,1st Grade,3,21,Happy,6484.375,1,0
119,Female,353,alln,76,1,1st Grade,3,22,Absent,2312.5,1,0
119,Female,353,8n1h,77,1,1st Grade,3,23,Happy,7406.25,1,0
119,Female,353,8n1a,78,1,1st Grade,3,24,Angry,3484.375,1,0
119,Female,353,8n1h,79,1,1st Grade,3,25,Happy,3500,1,0
119,Female,353,alln,80,1,1st Grade,3,26,Absent,7500,1,0
119,Female,353,alln,81,1,1st Grade,3,27,Absent,10859.375,1,0
120,Male,341,8n1a,1,1,1st Grade,1,1,Angry,2968.75,1,0
120,Male,341,8n1h,2,1,1st Grade,1,2,Happy,2453.125,1,0
120,Male,341,8n1h,3,1,1st Grade,1,3,Happy,1968.75,1,0
120,Male,341,8n1a,4,1,1st Grade,1,4,Angry,3546.875,1,0
120,Male,341,8n1h,5,1,1st Grade,1,5,Happy,2609.375,1,0
120,Male,341,alln,6,1,1st Grade,1,6,Absent,6406.25,1,0
120,Male,341,alln,7,1,1st Grade,1,7,Absent,4546.875,1,0
120,Male,341,8n1h,8,1,1st Grade,1,8,Happy,4046.875,1,0
120,Male,341,alln,9,1,1st Grade,1,9,Absent,5875,1,0
120,Male,341,8n1h,10,1,1st Grade,1,10,Happy,2171.875,1,0
120,Male,341,alln,11,1,1st Grade,1,11,Absent,2718.75,1,0
120,Male,341,8n1h,12,1,1st Grade,1,12,Happy,5437.5,1,0
120,Male,341,8n1a,13,1,1st Grade,1,13,Angry,1718.75,1,0
120,Male,341,8n1a,14,1,1st Grade,1,14,Angry,4171.875,1,0
120,Male,341,8n1h,15,1,1st Grade,1,15,Happy,4078.125,1,0
120,Male,341,alln,16,1,1st Grade,1,16,Absent,6031.25,1,0
120,Male,341,8n1h,17,1,1st Grade,1,17,Happy,2078.125,0,1
120,Male,341,8n1h,18,1,1st Grade,1,18,Happy,3093.75,1,0
120,Male,341,alln,19,1,1st Grade,1,19,Absent,4546.875,1,0
120,Male,341,8n1a,20,1,1st Grade,1,20,Angry,4109.375,1,0
120,Male,341,8n1a,21,1,1st Grade,1,21,Angry,4500,1,0
120,Male,341,8n1a,22,1,1st Grade,1,22,Angry,2640.625,1,0
120,Male,341,alln,23,1,1st Grade,1,23,Absent,2156.25,1,0
120,Male,341,8n1a,24,1,1st Grade,1,24,Angry,3765.625,1,0
120,Male,341,8n1a,25,1,1st Grade,1,25,Angry,1500,1,0
120,Male,341,alln,26,1,1st Grade,1,26,Absent,5125,1,0
120,Male,341,alln,27,1,1st Grade,1,27,Absent,2531.25,1,0
120,Male,341,8n1h,28,1,1st Grade,2,1,Happy,3031.25,0,1
120,Male,341,8n1a,29,1,1st Grade,2,2,Angry,4281.25,1,0
120,Male,341,alln,30,1,1st Grade,2,3,Absent,2640.625,1,0
120,Male,341,8n1a,31,1,1st Grade,2,4,Angry,3125,0,1
120,Male,341,8n1h,32,1,1st Grade,2,5,Happy,2812.5,0,1
120,Male,341,alln,33,1,1st Grade,2,6,Absent,2781.25,1,0
120,Male,341,8n1a,34,1,1st Grade,2,7,Angry,2406.25,1,0
120,Male,341,alln,35,1,1st Grade,2,8,Absent,2625,1,0
120,Male,341,8n1a,36,1,1st Grade,2,9,Angry,2656.25,1,0
120,Male,341,8n1h,37,1,1st Grade,2,10,Happy,4296.875,0,1
120,Male,341,8n1a,38,1,1st Grade,2,11,Angry,3046.875,0,1
120,Male,341,alln,39,1,1st Grade,2,12,Absent,6234.375,1,0
120,Male,341,8n1h,40,1,1st Grade,2,13,Happy,1890.625,1,0
120,Male,341,alln,41,1,1st Grade,2,14,Absent,,1,0
120,Male,341,8n1a,42,1,1st Grade,2,15,Angry,3171.875,1,0
120,Male,341,8n1h,43,1,1st Grade,2,16,Happy,4796.875,0,1
120,Male,341,8n1h,44,1,1st Grade,2,17,Happy,4125,0,1
120,Male,341,alln,45,1,1st Grade,2,18,Absent,5390.625,1,0
120,Male,341,8n1h,46,1,1st Grade,2,19,Happy,6140.625,1,0
120,Male,341,alln,47,1,1st Grade,2,20,Absent,2546.875,1,0
120,Male,341,alln,48,1,1st Grade,2,21,Absent,4671.875,1,0
120,Male,341,8n1h,49,1,1st Grade,2,22,Happy,3781.25,1,0
120,Male,341,8n1a,50,1,1st Grade,2,23,Angry,3046.875,1,0
120,Male,341,8n1a,51,1,1st Grade,2,24,Angry,6453.125,1,0
120,Male,341,8n1a,52,1,1st Grade,2,25,Angry,2562.5,1,0
120,Male,341,alln,53,1,1st Grade,2,26,Absent,2015.625,1,0
120,Male,341,8n1h,54,1,1st Grade,2,27,Happy,,1,0
120,Male,341,8n1h,55,1,1st Grade,3,1,Happy,4125,1,0
120,Male,341,alln,56,1,1st Grade,3,2,Absent,3703.125,1,0
120,Male,341,8n1h,57,1,1st Grade,3,3,Happy,2812.5,1,0
120,Male,341,8n1a,58,1,1st Grade,3,4,Angry,4734.375,1,0
120,Male,341,8n1a,59,1,1st Grade,3,5,Angry,5953.125,1,0
120,Male,341,alln,60,1,1st Grade,3,6,Absent,1671.875,1,0
120,Male,341,alln,61,1,1st Grade,3,7,Absent,2578.125,1,0
120,Male,341,8n1h,62,1,1st Grade,3,8,Happy,3390.625,0,1
120,Male,341,alln,63,1,1st Grade,3,9,Absent,4421.875,1,0
120,Male,341,alln,64,1,1st Grade,3,10,Absent,3093.75,1,0
120,Male,341,8n1a,65,1,1st Grade,3,11,Angry,8500,1,0
120,Male,341,8n1a,66,1,1st Grade,3,12,Angry,3390.625,1,0
120,Male,341,8n1a,67,1,1st Grade,3,13,Angry,1593.75,1,0
120,Male,341,8n1a,68,1,1st Grade,3,14,Angry,4390.625,0,1
120,Male,341,alln,69,1,1st Grade,3,15,Absent,3281.25,1,0
120,Male,341,8n1a,70,1,1st Grade,3,16,Angry,7015.625,1,0
120,Male,341,8n1h,71,1,1st Grade,3,17,Happy,4953.125,1,0
120,Male,341,alln,72,1,1st Grade,3,18,Absent,2906.25,1,0
120,Male,341,8n1a,73,1,1st Grade,3,19,Angry,1843.75,1,0
120,Male,341,alln,74,1,1st Grade,3,20,Absent,2984.375,1,0
120,Male,341,8n1h,75,1,1st Grade,3,21,Happy,2796.875,1,0
120,Male,341,8n1h,76,1,1st Grade,3,22,Happy,2484.375,1,0
120,Male,341,8n1h,77,1,1st Grade,3,23,Happy,3093.75,1,0
120,Male,341,8n1a,78,1,1st Grade,3,24,Angry,2859.375,1,0
120,Male,341,8n1h,79,1,1st Grade,3,25,Happy,1937.5,1,0
120,Male,341,alln,80,1,1st Grade,3,26,Absent,5656.25,1,0
120,Male,341,8n1h,81,1,1st Grade,3,27,Happy,7328.125,1,0
121,Female,402,alln,1,1,1st Grade,1,1,Absent,7031.25,1,0
121,Female,402,8n1a,2,1,1st Grade,1,2,Angry,3906.25,1,0
121,Female,402,8n1h,3,1,1st Grade,1,3,Happy,4015.625,1,0
121,Female,402,8n1h,4,1,1st Grade,1,4,Happy,5390.625,1,0
121,Female,402,alln,5,1,1st Grade,1,5,Absent,7546.875,1,0
121,Female,402,alln,6,1,1st Grade,1,6,Absent,6968.75,1,0
121,Female,402,alln,7,1,1st Grade,1,7,Absent,3921.875,1,0
121,Female,402,8n1a,8,1,1st Grade,1,8,Angry,6437.5,1,0
121,Female,402,alln,9,1,1st Grade,1,9,Absent,7890.625,1,0
121,Female,402,8n1a,10,1,1st Grade,1,10,Angry,8265.625,1,0
121,Female,402,8n1h,11,1,1st Grade,1,11,Happy,6578.125,1,0
121,Female,402,8n1a,12,1,1st Grade,1,12,Angry,5609.375,1,0
121,Female,402,alln,13,1,1st Grade,1,13,Absent,9109.375,1,0
121,Female,402,alln,14,1,1st Grade,1,14,Absent,10843.75,1,0
121,Female,402,8n1h,15,1,1st Grade,1,15,Happy,6140.625,1,0
121,Female,402,8n1a,16,1,1st Grade,1,16,Angry,5265.625,1,0
121,Female,402,8n1h,17,1,1st Grade,1,17,Happy,4953.125,0,1
121,Female,402,8n1a,18,1,1st Grade,1,18,Angry,4703.125,1,0
121,Female,402,8n1a,19,1,1st Grade,1,19,Angry,14921.875,1,0
121,Female,402,8n1a,20,1,1st Grade,1,20,Angry,5968.75,1,0
121,Female,402,8n1h,21,1,1st Grade,1,21,Happy,8359.375,1,0
121,Female,402,alln,22,1,1st Grade,1,22,Absent,5703.125,1,0
121,Female,402,8n1h,23,1,1st Grade,1,23,Happy,6984.375,1,0
121,Female,402,8n1h,24,1,1st Grade,1,24,Happy,3453.125,1,0
121,Female,402,alln,25,1,1st Grade,1,25,Absent,5671.875,1,0
121,Female,402,8n1a,26,1,1st Grade,1,26,Angry,11718.75,1,0
121,Female,402,8n1h,27,1,1st Grade,1,27,Happy,8203.125,1,0
121,Female,402,8n1h,28,1,1st Grade,2,1,Happy,4343.75,1,0
121,Female,402,alln,29,1,1st Grade,2,2,Absent,5312.5,1,0
121,Female,402,8n1a,30,1,1st Grade,2,3,Angry,5890.625,1,0
121,Female,402,alln,31,1,1st Grade,2,4,Absent,5546.875,1,0
121,Female,402,alln,32,1,1st Grade,2,5,Absent,2796.875,1,0
121,Female,402,alln,33,1,1st Grade,2,6,Absent,6609.375,1,0
121,Female,402,8n1h,34,1,1st Grade,2,7,Happy,5078.125,1,0
121,Female,402,8n1a,35,1,1st Grade,2,8,Angry,3593.75,1,0
121,Female,402,alln,36,1,1st Grade,2,9,Absent,5828.125,1,0
121,Female,402,8n1h,37,1,1st Grade,2,10,Happy,5828.125,1,0
121,Female,402,8n1a,38,1,1st Grade,2,11,Angry,10156.25,1,0
121,Female,402,8n1h,39,1,1st Grade,2,12,Happy,8515.625,1,0
121,Female,402,8n1h,40,1,1st Grade,2,13,Happy,4578.125,1,0
121,Female,402,8n1h,41,1,1st Grade,2,14,Happy,9125,1,0
121,Female,402,alln,42,1,1st Grade,2,15,Absent,8359.375,1,0
121,Female,402,alln,43,1,1st Grade,2,16,Absent,13921.875,1,0
121,Female,402,8n1a,44,1,1st Grade,2,17,Angry,2453.125,1,0
121,Female,402,8n1h,45,1,1st Grade,2,18,Happy,14671.875,1,0
121,Female,402,alln,46,1,1st Grade,2,19,Absent,4656.25,1,0
121,Female,402,8n1a,47,1,1st Grade,2,20,Angry,8750,1,0
121,Female,402,8n1a,48,1,1st Grade,2,21,Angry,5390.625,1,0
121,Female,402,alln,49,1,1st Grade,2,22,Absent,3609.375,1,0
121,Female,402,8n1a,50,1,1st Grade,2,23,Angry,5359.375,1,0
121,Female,402,8n1a,51,1,1st Grade,2,24,Angry,13562.5,1,0
121,Female,402,8n1h,52,1,1st Grade,2,25,Happy,2703.125,1,0
121,Female,402,8n1a,53,1,1st Grade,2,26,Angry,7312.5,1,0
121,Female,402,8n1h,54,1,1st Grade,2,27,Happy,7890.625,1,0
121,Female,402,8n1a,55,1,1st Grade,3,1,Angry,7781.25,1,0
121,Female,402,alln,56,1,1st Grade,3,2,Absent,5140.625,1,0
121,Female,402,alln,57,1,1st Grade,3,3,Absent,2937.5,1,0
121,Female,402,8n1a,58,1,1st Grade,3,4,Angry,4140.625,1,0
121,Female,402,alln,59,1,1st Grade,3,5,Absent,5390.625,1,0
121,Female,402,8n1a,60,1,1st Grade,3,6,Angry,3218.75,1,0
121,Female,402,8n1h,61,1,1st Grade,3,7,Happy,1968.75,1,0
121,Female,402,8n1h,62,1,1st Grade,3,8,Happy,2015.625,1,0
121,Female,402,8n1h,63,1,1st Grade,3,9,Happy,5140.625,1,0
121,Female,402,8n1h,64,1,1st Grade,3,10,Happy,5203.125,1,0
121,Female,402,alln,65,1,1st Grade,3,11,Absent,8093.75,1,0
121,Female,402,alln,66,1,1st Grade,3,12,Absent,3687.5,1,0
121,Female,402,8n1h,67,1,1st Grade,3,13,Happy,5687.5,1,0
121,Female,402,8n1a,68,1,1st Grade,3,14,Angry,2234.375,1,0
121,Female,402,alln,69,1,1st Grade,3,15,Absent,2562.5,1,0
121,Female,402,alln,70,1,1st Grade,3,16,Absent,7203.125,1,0
121,Female,402,8n1h,71,1,1st Grade,3,17,Happy,3625,1,0
121,Female,402,8n1a,72,1,1st Grade,3,18,Angry,4578.125,1,0
121,Female,402,8n1a,73,1,1st Grade,3,19,Angry,5906.25,1,0
121,Female,402,8n1h,74,1,1st Grade,3,20,Happy,5859.375,1,0
121,Female,402,alln,75,1,1st Grade,3,21,Absent,6046.875,1,0
121,Female,402,8n1h,76,1,1st Grade,3,22,Happy,4484.375,1,0
121,Female,402,alln,77,1,1st Grade,3,23,Absent,2343.75,1,0
121,Female,402,8n1a,78,1,1st Grade,3,24,Angry,5062.5,1,0
121,Female,402,8n1h,79,1,1st Grade,3,25,Happy,9406.25,1,0
121,Female,402,8n1a,80,1,1st Grade,3,26,Angry,1859.375,1,0
121,Female,402,8n1a,81,1,1st Grade,3,27,Angry,2328.125,1,0
122,Male,359,8n1a,1,1,1st Grade,1,1,Angry,4187.5,0,1
122,Male,359,alln,2,1,1st Grade,1,2,Absent,8562.5,1,0
122,Male,359,8n1h,3,1,1st Grade,1,3,Happy,5000,1,0
122,Male,359,8n1h,4,1,1st Grade,1,4,Happy,9421.875,1,0
122,Male,359,8n1a,5,1,1st Grade,1,5,Angry,8937.5,1,0
122,Male,359,alln,6,1,1st Grade,1,6,Absent,3718.75,1,0
122,Male,359,8n1h,7,1,1st Grade,1,7,Happy,2781.25,0,1
122,Male,359,8n1a,8,1,1st Grade,1,8,Angry,2234.375,1,0
122,Male,359,8n1h,9,1,1st Grade,1,9,Happy,4593.75,1,0
122,Male,359,8n1a,10,1,1st Grade,1,10,Angry,3906.25,1,0
122,Male,359,8n1h,11,1,1st Grade,1,11,Happy,5187.5,0,1
122,Male,359,8n1a,12,1,1st Grade,1,12,Angry,7515.625,1,0
122,Male,359,alln,13,1,1st Grade,1,13,Absent,2921.875,0,1
122,Male,359,alln,14,1,1st Grade,1,14,Absent,6625,0,1
122,Male,359,alln,15,1,1st Grade,1,15,Absent,4812.5,1,0
122,Male,359,8n1h,16,1,1st Grade,1,16,Happy,6250,0,1
122,Male,359,8n1a,17,1,1st Grade,1,17,Angry,4406.25,1,0
122,Male,359,alln,18,1,1st Grade,1,18,Absent,4609.375,0,1
122,Male,359,8n1a,19,1,1st Grade,1,19,Angry,7078.125,1,0
122,Male,359,8n1a,20,1,1st Grade,1,20,Angry,5265.625,1,0
122,Male,359,8n1h,21,1,1st Grade,1,21,Happy,3015.625,1,0
122,Male,359,8n1h,22,1,1st Grade,1,22,Happy,9578.125,0,1
122,Male,359,8n1a,23,1,1st Grade,1,23,Angry,6406.25,1,0
122,Male,359,alln,24,1,1st Grade,1,24,Absent,3593.75,1,0
122,Male,359,alln,25,1,1st Grade,1,25,Absent,10937.5,1,0
122,Male,359,alln,26,1,1st Grade,1,26,Absent,3984.375,1,0
122,Male,359,8n1h,27,1,1st Grade,1,27,Happy,6984.375,0,1
122,Male,359,8n1h,28,1,1st Grade,2,1,Happy,9093.75,0,1
122,Male,359,alln,29,1,1st Grade,2,2,Absent,8578.125,1,0
122,Male,359,8n1a,30,1,1st Grade,2,3,Angry,2171.875,1,0
122,Male,359,8n1h,31,1,1st Grade,2,4,Happy,4125,0,1
122,Male,359,8n1h,32,1,1st Grade,2,5,Happy,7343.75,1,0
122,Male,359,8n1h,33,1,1st Grade,2,6,Happy,6656.25,1,0
122,Male,359,8n1h,34,1,1st Grade,2,7,Happy,4593.75,0,1
122,Male,359,alln,35,1,1st Grade,2,8,Absent,7562.5,0,1
122,Male,359,8n1a,36,1,1st Grade,2,9,Angry,5796.875,1,0
122,Male,359,8n1h,37,1,1st Grade,2,10,Happy,3843.75,0,1
122,Male,359,alln,38,1,1st Grade,2,11,Absent,3921.875,1,0
122,Male,359,alln,39,1,1st Grade,2,12,Absent,2671.875,0,1
122,Male,359,alln,40,1,1st Grade,2,13,Absent,11093.75,1,0
122,Male,359,8n1a,41,1,1st Grade,2,14,Angry,4187.5,1,0
122,Male,359,alln,42,1,1st Grade,2,15,Absent,3703.125,1,0
122,Male,359,8n1a,43,1,1st Grade,2,16,Angry,1546.875,1,0
122,Male,359,alln,44,1,1st Grade,2,17,Absent,3875,1,0
122,Male,359,8n1h,45,1,1st Grade,2,18,Happy,2093.75,0,1
122,Male,359,8n1a,46,1,1st Grade,2,19,Angry,1125,1,0
122,Male,359,alln,47,1,1st Grade,2,20,Absent,2828.125,1,0
122,Male,359,8n1a,48,1,1st Grade,2,21,Angry,671.875,0,1
122,Male,359,alln,49,1,1st Grade,2,22,Absent,2296.875,1,0
122,Male,359,8n1h,50,1,1st Grade,2,23,Happy,1312.5,1,0
122,Male,359,8n1a,51,1,1st Grade,2,24,Angry,609.375,1,0
122,Male,359,8n1a,52,1,1st Grade,2,25,Angry,7281.25,1,0
122,Male,359,8n1a,53,1,1st Grade,2,26,Angry,5375,1,0
122,Male,359,8n1h,54,1,1st Grade,2,27,Happy,6343.75,1,0
122,Male,359,alln,55,1,1st Grade,3,1,Absent,4031.25,1,0
122,Male,359,8n1h,56,1,1st Grade,3,2,Happy,3406.25,0,1
122,Male,359,alln,57,1,1st Grade,3,3,Absent,6734.375,0,1
122,Male,359,8n1a,58,1,1st Grade,3,4,Angry,8859.375,1,0
122,Male,359,alln,59,1,1st Grade,3,5,Absent,5484.375,1,0
122,Male,359,8n1a,60,1,1st Grade,3,6,Angry,2937.5,1,0
122,Male,359,alln,61,1,1st Grade,3,7,Absent,6046.875,1,0
122,Male,359,8n1h,62,1,1st Grade,3,8,Happy,1921.875,0,1
122,Male,359,8n1h,63,1,1st Grade,3,9,Happy,2781.25,0,1
122,Male,359,alln,64,1,1st Grade,3,10,Absent,2734.375,0,1
122,Male,359,alln,65,1,1st Grade,3,11,Absent,6125,0,1
122,Male,359,8n1h,66,1,1st Grade,3,12,Happy,4546.875,1,0
122,Male,359,alln,67,1,1st Grade,3,13,Absent,6843.75,1,0
122,Male,359,alln,68,1,1st Grade,3,14,Absent,2109.375,1,0
122,Male,359,alln,69,1,1st Grade,3,15,Absent,6171.875,1,0
122,Male,359,8n1a,70,1,1st Grade,3,16,Angry,4468.75,1,0
122,Male,359,8n1a,71,1,1st Grade,3,17,Angry,3609.375,1,0
122,Male,359,8n1a,72,1,1st Grade,3,18,Angry,5953.125,1,0
122,Male,359,8n1h,73,1,1st Grade,3,19,Happy,,1,0
122,Male,359,8n1a,74,1,1st Grade,3,20,Angry,1281.25,1,0
122,Male,359,8n1a,75,1,1st Grade,3,21,Angry,4906.25,1,0
122,Male,359,8n1a,76,1,1st Grade,3,22,Angry,4093.75,1,0
122,Male,359,8n1h,77,1,1st Grade,3,23,Happy,10218.75,0,1
122,Male,359,8n1a,78,1,1st Grade,3,24,Angry,6859.375,1,0
122,Male,359,8n1h,79,1,1st Grade,3,25,Happy,3953.125,1,0
122,Male,359,8n1h,80,1,1st Grade,3,26,Happy,6515.625,1,0
122,Male,359,8n1h,81,1,1st Grade,3,27,Happy,5687.5,1,0
123,Female,353,8n1a,1,1,1st Grade,1,1,Angry,5859.375,1,0
123,Female,353,8n1a,2,1,1st Grade,1,2,Angry,3312.5,1,0
123,Female,353,8n1h,3,1,1st Grade,1,3,Happy,7562.5,1,0
123,Female,353,8n1h,4,1,1st Grade,1,4,Happy,2421.875,0,1
123,Female,353,8n1h,5,1,1st Grade,1,5,Happy,6031.25,0,1
123,Female,353,alln,6,1,1st Grade,1,6,Absent,5281.25,1,0
123,Female,353,alln,7,1,1st Grade,1,7,Absent,,1,0
123,Female,353,8n1a,8,1,1st Grade,1,8,Angry,4625,0,1
123,Female,353,alln,9,1,1st Grade,1,9,Absent,2000,1,0
123,Female,353,8n1h,10,1,1st Grade,1,10,Happy,2234.375,1,0
123,Female,353,alln,11,1,1st Grade,1,11,Absent,,1,0
123,Female,353,8n1h,12,1,1st Grade,1,12,Happy,1609.375,1,0
123,Female,353,8n1a,13,1,1st Grade,1,13,Angry,2781.25,1,0
123,Female,353,8n1a,14,1,1st Grade,1,14,Angry,,1,0
123,Female,353,8n1a,15,1,1st Grade,1,15,Angry,,1,0
123,Female,353,8n1a,16,1,1st Grade,1,16,Angry,,1,0
123,Female,353,alln,17,1,1st Grade,1,17,Absent,,1,0
123,Female,353,alln,18,1,1st Grade,1,18,Absent,,1,0
123,Female,353,8n1h,19,1,1st Grade,1,19,Happy,,1,0
123,Female,353,8n1a,20,1,1st Grade,1,20,Angry,,1,0
123,Female,353,alln,21,1,1st Grade,1,21,Absent,,1,0
123,Female,353,alln,22,1,1st Grade,1,22,Absent,,1,0
123,Female,353,8n1h,23,1,1st Grade,1,23,Happy,3671.875,0,1
123,Female,353,8n1h,24,1,1st Grade,1,24,Happy,4078.125,1,0
123,Female,353,8n1h,25,1,1st Grade,1,25,Happy,7187.5,1,0
123,Female,353,alln,26,1,1st Grade,1,26,Absent,2515.625,1,0
123,Female,353,8n1a,27,1,1st Grade,1,27,Angry,2984.375,1,0
123,Female,353,8n1a,28,1,1st Grade,2,1,Angry,7687.5,1,0
123,Female,353,8n1a,29,1,1st Grade,2,2,Angry,6578.125,1,0
123,Female,353,alln,30,1,1st Grade,2,3,Absent,4703.125,1,0
123,Female,353,8n1a,31,1,1st Grade,2,4,Angry,3765.625,1,0
123,Female,353,8n1h,32,1,1st Grade,2,5,Happy,5750,1,0
123,Female,353,alln,33,1,1st Grade,2,6,Absent,10109.375,1,0
123,Female,353,8n1h,34,1,1st Grade,2,7,Happy,9359.375,0,1
123,Female,353,8n1h,35,1,1st Grade,2,8,Happy,5656.25,1,0
123,Female,353,8n1h,36,1,1st Grade,2,9,Happy,5968.75,1,0
123,Female,353,alln,37,1,1st Grade,2,10,Absent,5125,1,0
123,Female,353,alln,38,1,1st Grade,2,11,Absent,7093.75,1,0
123,Female,353,8n1h,39,1,1st Grade,2,12,Happy,6031.25,1,0
123,Female,353,8n1h,40,1,1st Grade,2,13,Happy,5156.25,0,1
123,Female,353,8n1h,41,1,1st Grade,2,14,Happy,4906.25,1,0
123,Female,353,8n1a,42,1,1st Grade,2,15,Angry,6031.25,1,0
123,Female,353,alln,43,1,1st Grade,2,16,Absent,3375,1,0
123,Female,353,alln,44,1,1st Grade,2,17,Absent,8703.125,0,1
123,Female,353,8n1h,45,1,1st Grade,2,18,Happy,6453.125,1,0
123,Female,353,8n1a,46,1,1st Grade,2,19,Angry,4250,1,0
123,Female,353,8n1a,47,1,1st Grade,2,20,Angry,4906.25,1,0
123,Female,353,alln,48,1,1st Grade,2,21,Absent,8828.125,1,0
123,Female,353,8n1a,49,1,1st Grade,2,22,Angry,4250,1,0
123,Female,353,8n1a,50,1,1st Grade,2,23,Angry,3781.25,1,0
123,Female,353,alln,51,1,1st Grade,2,24,Absent,13156.25,1,0
123,Female,353,8n1h,52,1,1st Grade,2,25,Happy,6171.875,1,0
123,Female,353,alln,53,1,1st Grade,2,26,Absent,5343.75,1,0
123,Female,353,8n1a,54,1,1st Grade,2,27,Angry,3078.125,1,0
123,Female,353,alln,55,1,1st Grade,3,1,Absent,3656.25,1,0
123,Female,353,8n1a,56,1,1st Grade,3,2,Angry,3484.375,1,0
123,Female,353,8n1h,57,1,1st Grade,3,3,Happy,10203.125,1,0
123,Female,353,8n1a,58,1,1st Grade,3,4,Angry,3109.375,1,0
123,Female,353,8n1a,59,1,1st Grade,3,5,Angry,3875,0,1
123,Female,353,8n1h,60,1,1st Grade,3,6,Happy,7937.5,0,1
123,Female,353,8n1h,61,1,1st Grade,3,7,Happy,4843.75,0,1
123,Female,353,8n1a,62,1,1st Grade,3,8,Angry,5640.625,1,0
123,Female,353,alln,63,1,1st Grade,3,9,Absent,4546.875,1,0
123,Female,353,alln,64,1,1st Grade,3,10,Absent,5578.125,0,1
123,Female,353,8n1h,65,1,1st Grade,3,11,Happy,5296.875,1,0
123,Female,353,8n1a,66,1,1st Grade,3,12,Angry,8109.375,1,0
123,Female,353,alln,67,1,1st Grade,3,13,Absent,2937.5,1,0
123,Female,353,alln,68,1,1st Grade,3,14,Absent,6703.125,1,0
123,Female,353,alln,69,1,1st Grade,3,15,Absent,7031.25,1,0
123,Female,353,8n1a,70,1,1st Grade,3,16,Angry,2812.5,1,0
123,Female,353,8n1h,71,1,1st Grade,3,17,Happy,6828.125,1,0
123,Female,353,8n1a,72,1,1st Grade,3,18,Angry,3796.875,1,0
123,Female,353,alln,73,1,1st Grade,3,19,Absent,6781.25,1,0
123,Female,353,8n1a,74,1,1st Grade,3,20,Angry,6953.125,0,1
123,Female,353,alln,75,1,1st Grade,3,21,Absent,4046.875,1,0
123,Female,353,8n1h,76,1,1st Grade,3,22,Happy,3078.125,1,0
123,Female,353,8n1h,77,1,1st Grade,3,23,Happy,9015.625,1,0
123,Female,353,8n1a,78,1,1st Grade,3,24,Angry,5156.25,1,0
123,Female,353,8n1h,79,1,1st Grade,3,25,Happy,4875,1,0
123,Female,353,alln,80,1,1st Grade,3,26,Absent,5906.25,1,0
123,Female,353,8n1h,81,1,1st Grade,3,27,Happy,7281.25,1,0
141,Male,378,8n1h,1,1,1st Grade,1,1,Happy,6250,0,1
141,Male,378,alln,2,1,1st Grade,1,2,Absent,4031.25,1,0
141,Male,378,8n1a,3,1,1st Grade,1,3,Angry,12453.125,0,1
141,Male,378,8n1h,4,1,1st Grade,1,4,Happy,5046.875,0,1
141,Male,378,8n1h,5,1,1st Grade,1,5,Happy,6468.75,0,1
141,Male,378,8n1a,6,1,1st Grade,1,6,Angry,6046.875,1,0
141,Male,378,8n1h,7,1,1st Grade,1,7,Happy,2765.625,1,0
141,Male,378,8n1a,8,1,1st Grade,1,8,Angry,2546.875,1,0
141,Male,378,alln,9,1,1st Grade,1,9,Absent,2625,1,0
141,Male,378,8n1h,10,1,1st Grade,1,10,Happy,3828.125,0,1
141,Male,378,8n1h,11,1,1st Grade,1,11,Happy,6203.125,0,1
141,Male,378,8n1a,12,1,1st Grade,1,12,Angry,6937.5,1,0
141,Male,378,alln,13,1,1st Grade,1,13,Absent,3265.625,1,0
141,Male,378,8n1h,14,1,1st Grade,1,14,Happy,4484.375,1,0
141,Male,378,8n1h,15,1,1st Grade,1,15,Happy,9046.875,0,1
141,Male,378,alln,16,1,1st Grade,1,16,Absent,10484.375,1,0
141,Male,378,8n1a,17,1,1st Grade,1,17,Angry,4593.75,1,0
141,Male,378,alln,18,1,1st Grade,1,18,Absent,9437.5,1,0
141,Male,378,8n1a,19,1,1st Grade,1,19,Angry,,1,0
141,Male,378,8n1a,20,1,1st Grade,1,20,Angry,8390.625,1,0
141,Male,378,alln,21,1,1st Grade,1,21,Absent,3921.875,1,0
141,Male,378,alln,22,1,1st Grade,1,22,Absent,4343.75,0,1
141,Male,378,alln,23,1,1st Grade,1,23,Absent,,0,1
141,Male,378,8n1a,24,1,1st Grade,1,24,Angry,7578.125,1,0
141,Male,378,alln,25,1,1st Grade,1,25,Absent,5640.625,0,1
141,Male,378,8n1h,26,1,1st Grade,1,26,Happy,6109.375,0,1
141,Male,378,8n1a,27,1,1st Grade,1,27,Angry,4375,1,0
141,Male,378,8n1h,28,1,1st Grade,2,1,Happy,9859.375,0,1
141,Male,378,8n1a,29,1,1st Grade,2,2,Angry,7796.875,1,0
141,Male,378,8n1a,30,1,1st Grade,2,3,Angry,5546.875,1,0
141,Male,378,8n1a,31,1,1st Grade,2,4,Angry,4687.5,1,0
141,Male,378,8n1a,32,1,1st Grade,2,5,Angry,4234.375,1,0
141,Male,378,alln,33,1,1st Grade,2,6,Absent,5828.125,1,0
141,Male,378,8n1h,34,1,1st Grade,2,7,Happy,6453.125,1,0
141,Male,378,8n1a,35,1,1st Grade,2,8,Angry,6703.125,1,0
141,Male,378,alln,36,1,1st Grade,2,9,Absent,5187.5,0,1
141,Male,378,alln,37,1,1st Grade,2,10,Absent,6781.25,0,1
141,Male,378,alln,38,1,1st Grade,2,11,Absent,7000,1,0
141,Male,378,alln,39,1,1st Grade,2,12,Absent,6218.75,0,1
141,Male,378,alln,40,1,1st Grade,2,13,Absent,5781.25,1,0
141,Male,378,8n1h,41,1,1st Grade,2,14,Happy,6921.875,0,1
141,Male,378,8n1a,42,1,1st Grade,2,15,Angry,6718.75,1,0
141,Male,378,8n1h,43,1,1st Grade,2,16,Happy,11718.75,1,0
141,Male,378,8n1a,44,1,1st Grade,2,17,Angry,7671.875,1,0
141,Male,378,8n1h,45,1,1st Grade,2,18,Happy,3171.875,1,0
141,Male,378,alln,46,1,1st Grade,2,19,Absent,5328.125,1,0
141,Male,378,8n1h,47,1,1st Grade,2,20,Happy,7812.5,1,0
141,Male,378,8n1h,48,1,1st Grade,2,21,Happy,5484.375,1,0
141,Male,378,alln,49,1,1st Grade,2,22,Absent,5000,1,0
141,Male,378,8n1h,50,1,1st Grade,2,23,Happy,5593.75,0,1
141,Male,378,8n1a,51,1,1st Grade,2,24,Angry,4234.375,1,0
141,Male,378,8n1h,52,1,1st Grade,2,25,Happy,10062.5,1,0
141,Male,378,alln,53,1,1st Grade,2,26,Absent,7359.375,1,0
141,Male,378,8n1a,54,1,1st Grade,2,27,Angry,2515.625,1,0
141,Male,378,alln,55,1,1st Grade,3,1,Absent,6062.5,0,1
141,Male,378,8n1a,56,1,1st Grade,3,2,Angry,12000,1,0
141,Male,378,8n1a,57,1,1st Grade,3,3,Angry,5437.5,1,0
141,Male,378,8n1h,58,1,1st Grade,3,4,Happy,3734.375,0,1
141,Male,378,alln,59,1,1st Grade,3,5,Absent,6890.625,1,0
141,Male,378,8n1h,60,1,1st Grade,3,6,Happy,3953.125,1,0
141,Male,378,8n1h,61,1,1st Grade,3,7,Happy,4781.25,1,0
141,Male,378,8n1h,62,1,1st Grade,3,8,Happy,,1,0
141,Male,378,alln,63,1,1st Grade,3,9,Absent,,1,0
141,Male,378,8n1h,64,1,1st Grade,3,10,Happy,,1,0
141,Male,378,alln,65,1,1st Grade,3,11,Absent,,1,0
141,Male,378,8n1h,66,1,1st Grade,3,12,Happy,,1,0
141,Male,378,8n1a,67,1,1st Grade,3,13,Angry,3140.625,1,0
141,Male,378,8n1h,68,1,1st Grade,3,14,Happy,3750,1,0
141,Male,378,alln,69,1,1st Grade,3,15,Absent,2093.75,1,0
141,Male,378,8n1a,70,1,1st Grade,3,16,Angry,5015.625,1,0
141,Male,378,alln,71,1,1st Grade,3,17,Absent,5640.625,1,0
141,Male,378,alln,72,1,1st Grade,3,18,Absent,4343.75,1,0
141,Male,378,8n1a,73,1,1st Grade,3,19,Angry,5609.375,1,0
141,Male,378,alln,74,1,1st Grade,3,20,Absent,6234.375,1,0
141,Male,378,8n1a,75,1,1st Grade,3,21,Angry,,1,0
141,Male,378,8n1a,76,1,1st Grade,3,22,Angry,6250,1,0
141,Male,378,8n1h,77,1,1st Grade,3,23,Happy,6531.25,0,1
141,Male,378,alln,78,1,1st Grade,3,24,Absent,9890.625,1,0
141,Male,378,8n1a,79,1,1st Grade,3,25,Angry,7703.125,1,0
141,Male,378,8n1a,80,1,1st Grade,3,26,Angry,8171.875,1,0
141,Male,378,8n1h,81,1,1st Grade,3,27,Happy,3671.875,1,0
142,Female,348,8n1a,1,1,1st Grade,1,1,Angry,6062.5,1,0
142,Female,348,8n1h,2,1,1st Grade,1,2,Happy,12000,1,0
142,Female,348,8n1h,3,1,1st Grade,1,3,Happy,5437.5,0,1
142,Female,348,8n1a,4,1,1st Grade,1,4,Angry,3734.375,1,0
142,Female,348,8n1h,5,1,1st Grade,1,5,Happy,6890.625,0,1
142,Female,348,8n1h,6,1,1st Grade,1,6,Happy,3953.125,1,0
142,Female,348,8n1a,7,1,1st Grade,1,7,Angry,4781.25,1,0
142,Female,348,8n1a,8,1,1st Grade,1,8,Angry,,1,0
142,Female,348,alln,9,1,1st Grade,1,9,Absent,,1,0
142,Female,348,8n1a,10,1,1st Grade,1,10,Angry,,1,0
142,Female,348,alln,11,1,1st Grade,1,11,Absent,,1,0
142,Female,348,8n1h,12,1,1st Grade,1,12,Happy,,1,0
142,Female,348,8n1h,13,1,1st Grade,1,13,Happy,3140.625,1,0
142,Female,348,8n1a,14,1,1st Grade,1,14,Angry,3750,1,0
142,Female,348,8n1h,15,1,1st Grade,1,15,Happy,2093.75,1,0
142,Female,348,alln,16,1,1st Grade,1,16,Absent,5015.625,1,0
142,Female,348,alln,17,1,1st Grade,1,17,Absent,5640.625,1,0
142,Female,348,8n1h,18,1,1st Grade,1,18,Happy,4343.75,1,0
142,Female,348,alln,19,1,1st Grade,1,19,Absent,5609.375,0,1
142,Female,348,8n1h,20,1,1st Grade,1,20,Happy,6234.375,1,0
142,Female,348,alln,21,1,1st Grade,1,21,Absent,17875,1,0
142,Female,348,alln,22,1,1st Grade,1,22,Absent,6250,1,0
142,Female,348,alln,23,1,1st Grade,1,23,Absent,6531.25,1,0
142,Female,348,alln,24,1,1st Grade,1,24,Absent,9890.625,1,0
142,Female,348,8n1a,25,1,1st Grade,1,25,Angry,7703.125,1,0
142,Female,348,8n1a,26,1,1st Grade,1,26,Angry,8171.875,1,0
142,Female,348,8n1a,27,1,1st Grade,1,27,Angry,3671.875,1,0
142,Female,348,8n1h,28,1,1st Grade,2,1,Happy,16500,1,0
142,Female,348,8n1h,29,1,1st Grade,2,2,Happy,16109.375,1,0
142,Female,348,8n1a,30,1,1st Grade,2,3,Angry,11687.5,1,0
142,Female,348,8n1h,31,1,1st Grade,2,4,Happy,15281.25,0,1
142,Female,348,alln,32,1,1st Grade,2,5,Absent,27578.125,1,0
142,Female,348,8n1a,33,1,1st Grade,2,6,Angry,30078.125,1,0
142,Female,348,alln,34,1,1st Grade,2,7,Absent,9984.375,1,0
142,Female,348,8n1h,35,1,1st Grade,2,8,Happy,12296.875,1,0
142,Female,348,8n1a,36,1,1st Grade,2,9,Angry,30218.75,1,0
142,Female,348,alln,37,1,1st Grade,2,10,Absent,8640.625,0,1
142,Female,348,8n1a,38,1,1st Grade,2,11,Angry,6765.625,1,0
142,Female,348,8n1h,39,1,1st Grade,2,12,Happy,5734.375,1,0
142,Female,348,alln,40,1,1st Grade,2,13,Absent,12140.625,1,0
142,Female,348,alln,41,1,1st Grade,2,14,Absent,24359.375,1,0
142,Female,348,8n1a,42,1,1st Grade,2,15,Angry,26593.75,1,0
142,Female,348,8n1a,43,1,1st Grade,2,16,Angry,7312.5,1,0
142,Female,348,8n1h,44,1,1st Grade,2,17,Happy,3187.5,1,0
142,Female,348,8n1a,45,1,1st Grade,2,18,Angry,4406.25,1,0
142,Female,348,8n1a,46,1,1st Grade,2,19,Angry,,1,0
142,Female,348,alln,47,1,1st Grade,2,20,Absent,8062.5,1,0
142,Female,348,alln,48,1,1st Grade,2,21,Absent,16625,1,0
142,Female,348,alln,49,1,1st Grade,2,22,Absent,8296.875,1,0
142,Female,348,8n1h,50,1,1st Grade,2,23,Happy,7765.625,1,0
142,Female,348,alln,51,1,1st Grade,2,24,Absent,3359.375,1,0
142,Female,348,8n1h,52,1,1st Grade,2,25,Happy,8968.75,0,1
142,Female,348,8n1h,53,1,1st Grade,2,26,Happy,23718.75,1,0
142,Female,348,8n1a,54,1,1st Grade,2,27,Angry,4218.75,1,0
142,Female,348,8n1h,55,1,1st Grade,3,1,Happy,12171.875,1,0
142,Female,348,8n1h,56,1,1st Grade,3,2,Happy,,1,0
142,Female,348,8n1h,57,1,1st Grade,3,3,Happy,7625,0,1
142,Female,348,8n1h,58,1,1st Grade,3,4,Happy,6156.25,1,0
142,Female,348,8n1a,59,1,1st Grade,3,5,Angry,7546.875,1,0
142,Female,348,8n1a,60,1,1st Grade,3,6,Angry,,1,0
142,Female,348,8n1h,61,1,1st Grade,3,7,Happy,3562.5,1,0
142,Female,348,8n1a,62,1,1st Grade,3,8,Angry,6359.375,1,0
142,Female,348,alln,63,1,1st Grade,3,9,Absent,8484.375,1,0
142,Female,348,8n1a,64,1,1st Grade,3,10,Angry,13296.875,1,0
142,Female,348,8n1h,65,1,1st Grade,3,11,Happy,7921.875,1,0
142,Female,348,8n1a,66,1,1st Grade,3,12,Angry,5015.625,1,0
142,Female,348,alln,67,1,1st Grade,3,13,Absent,9078.125,1,0
142,Female,348,alln,68,1,1st Grade,3,14,Absent,5296.875,1,0
142,Female,348,alln,69,1,1st Grade,3,15,Absent,16140.625,1,0
142,Female,348,alln,70,1,1st Grade,3,16,Absent,12625,1,0
142,Female,348,8n1a,71,1,1st Grade,3,17,Angry,5156.25,1,0
142,Female,348,alln,72,1,1st Grade,3,18,Absent,7406.25,1,0
142,Female,348,alln,73,1,1st Grade,3,19,Absent,17671.875,1,0
142,Female,348,8n1h,74,1,1st Grade,3,20,Happy,7234.375,1,0
142,Female,348,alln,75,1,1st Grade,3,21,Absent,11687.5,1,0
142,Female,348,8n1h,76,1,1st Grade,3,22,Happy,28375,0,1
142,Female,348,8n1h,77,1,1st Grade,3,23,Happy,11640.625,1,0
142,Female,348,8n1a,78,1,1st Grade,3,24,Angry,23703.125,1,0
142,Female,348,8n1a,79,1,1st Grade,3,25,Angry,5250,1,0
142,Female,348,alln,80,1,1st Grade,3,26,Absent,5921.875,1,0
142,Female,348,8n1a,81,1,1st Grade,3,27,Angry,,0,1
143,Male,335,8n1a,1,1,1st Grade,1,1,Angry,5640.625,1,0
143,Male,335,alln,2,1,1st Grade,1,2,Absent,13265.625,1,0
143,Male,335,8n1h,3,1,1st Grade,1,3,Happy,20390.625,1,0
143,Male,335,8n1h,4,1,1st Grade,1,4,Happy,4796.875,1,0
143,Male,335,alln,5,1,1st Grade,1,5,Absent,5343.75,0,1
143,Male,335,alln,6,1,1st Grade,1,6,Absent,11265.625,1,0
143,Male,335,8n1a,7,1,1st Grade,1,7,Angry,2609.375,1,0
143,Male,335,8n1a,8,1,1st Grade,1,8,Angry,4828.125,1,0
143,Male,335,alln,9,1,1st Grade,1,9,Absent,14984.375,1,0
143,Male,335,8n1a,10,1,1st Grade,1,10,Angry,12828.125,1,0
143,Male,335,alln,11,1,1st Grade,1,11,Absent,12234.375,1,0
143,Male,335,8n1h,12,1,1st Grade,1,12,Happy,,1,0
143,Male,335,8n1h,13,1,1st Grade,1,13,Happy,9765.625,1,0
143,Male,335,8n1h,14,1,1st Grade,1,14,Happy,2484.375,1,0
143,Male,335,8n1h,15,1,1st Grade,1,15,Happy,13265.625,1,0
143,Male,335,alln,16,1,1st Grade,1,16,Absent,11437.5,1,0
143,Male,335,alln,17,1,1st Grade,1,17,Absent,,1,0
143,Male,335,8n1h,18,1,1st Grade,1,18,Happy,8859.375,1,0
143,Male,335,8n1a,19,1,1st Grade,1,19,Angry,4265.625,1,0
143,Male,335,alln,20,1,1st Grade,1,20,Absent,3718.75,1,0
143,Male,335,8n1h,21,1,1st Grade,1,21,Happy,7375,1,0
143,Male,335,alln,22,1,1st Grade,1,22,Absent,11750,1,0
143,Male,335,8n1a,23,1,1st Grade,1,23,Angry,4218.75,1,0
143,Male,335,8n1a,24,1,1st Grade,1,24,Angry,11765.625,1,0
143,Male,335,8n1h,25,1,1st Grade,1,25,Happy,4312.5,1,0
143,Male,335,8n1a,26,1,1st Grade,1,26,Angry,7421.875,1,0
143,Male,335,8n1a,27,1,1st Grade,1,27,Angry,3093.75,1,0
143,Male,335,alln,28,1,1st Grade,2,1,Absent,11015.625,1,0
143,Male,335,alln,29,1,1st Grade,2,2,Absent,9156.25,1,0
143,Male,335,alln,30,1,1st Grade,2,3,Absent,9359.375,1,0
143,Male,335,8n1a,31,1,1st Grade,2,4,Angry,4750,1,0
143,Male,335,8n1h,32,1,1st Grade,2,5,Happy,4125,1,0
143,Male,335,alln,33,1,1st Grade,2,6,Absent,12093.75,1,0
143,Male,335,8n1a,34,1,1st Grade,2,7,Angry,6921.875,1,0
143,Male,335,alln,35,1,1st Grade,2,8,Absent,11031.25,1,0
143,Male,335,8n1a,36,1,1st Grade,2,9,Angry,8156.25,1,0
143,Male,335,8n1h,37,1,1st Grade,2,10,Happy,5343.75,0,1
143,Male,335,alln,38,1,1st Grade,2,11,Absent,6078.125,1,0
143,Male,335,8n1h,39,1,1st Grade,2,12,Happy,8609.375,1,0
143,Male,335,alln,40,1,1st Grade,2,13,Absent,3484.375,1,0
143,Male,335,8n1h,41,1,1st Grade,2,14,Happy,4875,1,0
143,Male,335,8n1a,42,1,1st Grade,2,15,Angry,4328.125,1,0
143,Male,335,alln,43,1,1st Grade,2,16,Absent,5609.375,1,0
143,Male,335,8n1a,44,1,1st Grade,2,17,Angry,3796.875,1,0
143,Male,335,alln,45,1,1st Grade,2,18,Absent,6375,1,0
143,Male,335,8n1h,46,1,1st Grade,2,19,Happy,6562.5,1,0
143,Male,335,8n1h,47,1,1st Grade,2,20,Happy,5656.25,1,0
143,Male,335,8n1h,48,1,1st Grade,2,21,Happy,6109.375,1,0
143,Male,335,8n1a,49,1,1st Grade,2,22,Angry,7281.25,1,0
143,Male,335,8n1a,50,1,1st Grade,2,23,Angry,4281.25,1,0
143,Male,335,8n1a,51,1,1st Grade,2,24,Angry,4390.625,1,0
143,Male,335,8n1a,52,1,1st Grade,2,25,Angry,5250,1,0
143,Male,335,8n1h,53,1,1st Grade,2,26,Happy,7531.25,1,0
143,Male,335,8n1h,54,1,1st Grade,2,27,Happy,4562.5,1,0
143,Male,335,8n1h,55,1,1st Grade,3,1,Happy,6171.875,0,1
143,Male,335,8n1a,56,1,1st Grade,3,2,Angry,5140.625,1,0
143,Male,335,8n1a,57,1,1st Grade,3,3,Angry,5000,1,0
143,Male,335,8n1h,58,1,1st Grade,3,4,Happy,5421.875,1,0
143,Male,335,alln,59,1,1st Grade,3,5,Absent,11937.5,1,0
143,Male,335,8n1h,60,1,1st Grade,3,6,Happy,6328.125,1,0
143,Male,335,8n1a,61,1,1st Grade,3,7,Angry,8734.375,1,0
143,Male,335,alln,62,1,1st Grade,3,8,Absent,7421.875,1,0
143,Male,335,alln,63,1,1st Grade,3,9,Absent,4968.75,1,0
143,Male,335,8n1a,64,1,1st Grade,3,10,Angry,6218.75,1,0
143,Male,335,8n1h,65,1,1st Grade,3,11,Happy,2703.125,1,0
143,Male,335,8n1h,66,1,1st Grade,3,12,Happy,4468.75,1,0
143,Male,335,8n1h,67,1,1st Grade,3,13,Happy,3343.75,1,0
143,Male,335,8n1a,68,1,1st Grade,3,14,Angry,6609.375,1,0
143,Male,335,8n1h,69,1,1st Grade,3,15,Happy,7062.5,1,0
143,Male,335,8n1a,70,1,1st Grade,3,16,Angry,11593.75,1,0
143,Male,335,8n1h,71,1,1st Grade,3,17,Happy,5234.375,0,1
143,Male,335,8n1h,72,1,1st Grade,3,18,Happy,5296.875,1,0
143,Male,335,alln,73,1,1st Grade,3,19,Absent,,1,0
143,Male,335,8n1a,74,1,1st Grade,3,20,Angry,5218.75,1,0
143,Male,335,alln,75,1,1st Grade,3,21,Absent,2718.75,1,0
143,Male,335,alln,76,1,1st Grade,3,22,Absent,5218.75,1,0
143,Male,335,8n1a,77,1,1st Grade,3,23,Angry,4156.25,1,0
143,Male,335,alln,78,1,1st Grade,3,24,Absent,6843.75,1,0
143,Male,335,alln,79,1,1st Grade,3,25,Absent,5828.125,1,0
143,Male,335,8n1a,80,1,1st Grade,3,26,Angry,5359.375,1,0
143,Male,335,alln,81,1,1st Grade,3,27,Absent,3906.25,1,0
144,Female,350,alln,1,1,1st Grade,1,1,Absent,7062.5,1,0
144,Female,350,8n1a,2,1,1st Grade,1,2,Angry,3906.25,1,0
144,Female,350,8n1a,3,1,1st Grade,1,3,Angry,7312.5,1,0
144,Female,350,8n1a,4,1,1st Grade,1,4,Angry,10953.125,1,0
144,Female,350,8n1a,5,1,1st Grade,1,5,Angry,6281.25,1,0
144,Female,350,alln,6,1,1st Grade,1,6,Absent,5500,1,0
144,Female,350,alln,7,1,1st Grade,1,7,Absent,3171.875,1,0
144,Female,350,alln,8,1,1st Grade,1,8,Absent,6640.625,1,0
144,Female,350,8n1a,9,1,1st Grade,1,9,Angry,5109.375,1,0
144,Female,350,8n1a,10,1,1st Grade,1,10,Angry,4640.625,1,0
144,Female,350,8n1h,11,1,1st Grade,1,11,Happy,5187.5,0,1
144,Female,350,8n1h,12,1,1st Grade,1,12,Happy,5234.375,1,0
144,Female,350,8n1h,13,1,1st Grade,1,13,Happy,6437.5,1,0
144,Female,350,8n1h,14,1,1st Grade,1,14,Happy,4484.375,0,1
144,Female,350,8n1h,15,1,1st Grade,1,15,Happy,5875,1,0
144,Female,350,8n1h,16,1,1st Grade,1,16,Happy,,1,0
144,Female,350,alln,17,1,1st Grade,1,17,Absent,7875,1,0
144,Female,350,8n1a,18,1,1st Grade,1,18,Angry,2546.875,0,1
144,Female,350,8n1a,19,1,1st Grade,1,19,Angry,3765.625,1,0
144,Female,350,8n1h,20,1,1st Grade,1,20,Happy,3921.875,0,1
144,Female,350,alln,21,1,1st Grade,1,21,Absent,4796.875,1,0
144,Female,350,8n1h,22,1,1st Grade,1,22,Happy,6328.125,1,0
144,Female,350,8n1a,23,1,1st Grade,1,23,Angry,,0,1
144,Female,350,8n1h,24,1,1st Grade,1,24,Happy,8078.125,1,0
144,Female,350,alln,25,1,1st Grade,1,25,Absent,5046.875,1,0
144,Female,350,alln,26,1,1st Grade,1,26,Absent,5140.625,1,0
144,Female,350,alln,27,1,1st Grade,1,27,Absent,3421.875,1,0
144,Female,350,8n1a,28,1,1st Grade,2,1,Angry,6921.875,0,1
144,Female,350,8n1h,29,1,1st Grade,2,2,Happy,10328.125,0,1
144,Female,350,8n1a,30,1,1st Grade,2,3,Angry,4828.125,1,0
144,Female,350,8n1a,31,1,1st Grade,2,4,Angry,,0,1
144,Female,350,8n1a,32,1,1st Grade,2,5,Angry,,0,1
144,Female,350,alln,33,1,1st Grade,2,6,Absent,3609.375,1,0
144,Female,350,8n1h,34,1,1st Grade,2,7,Happy,4859.375,1,0
144,Female,350,alln,35,1,1st Grade,2,8,Absent,6468.75,1,0
144,Female,350,8n1a,36,1,1st Grade,2,9,Angry,,1,0
144,Female,350,alln,37,1,1st Grade,2,10,Absent,9578.125,1,0
144,Female,350,8n1h,38,1,1st Grade,2,11,Happy,7531.25,1,0
144,Female,350,8n1h,39,1,1st Grade,2,12,Happy,7218.75,0,1
144,Female,350,alln,40,1,1st Grade,2,13,Absent,7234.375,1,0
144,Female,350,8n1h,41,1,1st Grade,2,14,Happy,7171.875,1,0
144,Female,350,8n1a,42,1,1st Grade,2,15,Angry,6890.625,0,1
144,Female,350,alln,43,1,1st Grade,2,16,Absent,4328.125,1,0
144,Female,350,8n1h,44,1,1st Grade,2,17,Happy,7875,1,0
144,Female,350,alln,45,1,1st Grade,2,18,Absent,6515.625,1,0
144,Female,350,8n1h,46,1,1st Grade,2,19,Happy,2843.75,0,1
144,Female,350,alln,47,1,1st Grade,2,20,Absent,5250,1,0
144,Female,350,alln,48,1,1st Grade,2,21,Absent,5437.5,1,0
144,Female,350,8n1a,49,1,1st Grade,2,22,Angry,7906.25,1,0
144,Female,350,8n1h,50,1,1st Grade,2,23,Happy,3421.875,1,0
144,Female,350,8n1h,51,1,1st Grade,2,24,Happy,4546.875,1,0
144,Female,350,8n1a,52,1,1st Grade,2,25,Angry,3937.5,1,0
144,Female,350,8n1a,53,1,1st Grade,2,26,Angry,8078.125,1,0
144,Female,350,alln,54,1,1st Grade,2,27,Absent,5890.625,1,0
144,Female,350,8n1h,55,1,1st Grade,3,1,Happy,6093.75,0,1
144,Female,350,alln,56,1,1st Grade,3,2,Absent,5593.75,1,0
144,Female,350,8n1a,57,1,1st Grade,3,3,Angry,5406.25,0,1
144,Female,350,alln,58,1,1st Grade,3,4,Absent,4640.625,1,0
144,Female,350,alln,59,1,1st Grade,3,5,Absent,5031.25,1,0
144,Female,350,8n1a,60,1,1st Grade,3,6,Angry,12125,1,0
144,Female,350,8n1a,61,1,1st Grade,3,7,Angry,3156.25,1,0
144,Female,350,8n1h,62,1,1st Grade,3,8,Happy,4515.625,0,1
144,Female,350,alln,63,1,1st Grade,3,9,Absent,3656.25,1,0
144,Female,350,alln,64,1,1st Grade,3,10,Absent,4156.25,1,0
144,Female,350,8n1h,65,1,1st Grade,3,11,Happy,5734.375,1,0
144,Female,350,8n1a,66,1,1st Grade,3,12,Angry,4593.75,1,0
144,Female,350,8n1h,67,1,1st Grade,3,13,Happy,3390.625,0,1
144,Female,350,alln,68,1,1st Grade,3,14,Absent,9078.125,1,0
144,Female,350,8n1a,69,1,1st Grade,3,15,Angry,,0,1
144,Female,350,8n1h,70,1,1st Grade,3,16,Happy,7859.375,1,0
144,Female,350,8n1h,71,1,1st Grade,3,17,Happy,4562.5,1,0
144,Female,350,8n1h,72,1,1st Grade,3,18,Happy,2125,1,0
144,Female,350,alln,73,1,1st Grade,3,19,Absent,2281.25,1,0
144,Female,350,8n1a,74,1,1st Grade,3,20,Angry,3468.75,0,1
144,Female,350,8n1a,75,1,1st Grade,3,21,Angry,4687.5,1,0
144,Female,350,8n1a,76,1,1st Grade,3,22,Angry,4093.75,1,0
144,Female,350,alln,77,1,1st Grade,3,23,Absent,4640.625,1,0
144,Female,350,alln,78,1,1st Grade,3,24,Absent,9765.625,1,0
144,Female,350,8n1h,79,1,1st Grade,3,25,Happy,,0,1
144,Female,350,8n1h,80,1,1st Grade,3,26,Happy,,1,0
144,Female,350,8n1a,81,1,1st Grade,3,27,Angry,5234.375,1,0
145,Female,332,8n1a,1,1,1st Grade,1,1,Angry,7328.125,1,0
145,Female,332,8n1h,2,1,1st Grade,1,2,Happy,12187.5,1,0
145,Female,332,8n1a,3,1,1st Grade,1,3,Angry,2734.375,1,0
145,Female,332,alln,4,1,1st Grade,1,4,Absent,5093.75,1,0
145,Female,332,8n1a,5,1,1st Grade,1,5,Angry,8859.375,1,0
145,Female,332,8n1h,6,1,1st Grade,1,6,Happy,5093.75,1,0
145,Female,332,alln,7,1,1st Grade,1,7,Absent,4421.875,1,0
145,Female,332,8n1a,8,1,1st Grade,1,8,Angry,6468.75,1,0
145,Female,332,8n1h,9,1,1st Grade,1,9,Happy,4656.25,1,0
145,Female,332,8n1h,10,1,1st Grade,1,10,Happy,5281.25,1,0
145,Female,332,8n1a,11,1,1st Grade,1,11,Angry,3718.75,1,0
145,Female,332,alln,12,1,1st Grade,1,12,Absent,3625,1,0
145,Female,332,8n1a,13,1,1st Grade,1,13,Angry,4921.875,1,0
145,Female,332,8n1h,14,1,1st Grade,1,14,Happy,3843.75,1,0
